"variable","type","exec","in_generated","oracle_match_pct","na_agree_pct","n_compare","note"
"STUDYID","text","EXECUTED",TRUE,100,100,254,"char exact"
"USUBJID","text","EXECUTED",TRUE,83,100,306,"set overlap (join key)"
"SUBJID","text","EXECUTED",TRUE,100,100,254,"char exact"
"SITEID","text","EXECUTED",TRUE,100,100,254,"char exact"
"SITEGR1","text","REVIEW",FALSE,NA,NA,0,"not in generated ADSL"
"ARM","text","EXECUTED",TRUE,100,100,254,"char exact"
"TRT01P","text","EXECUTED",TRUE,100,100,254,"char exact"
"TRT01PN","integer","REVIEW",FALSE,NA,NA,0,"not in generated ADSL"
"TRT01A","text","EXECUTED",TRUE,100,100,254,"char exact"
"TRT01AN","integer","REVIEW",FALSE,NA,NA,0,"not in generated ADSL"
"TRTSDT","integer","REVIEW",FALSE,NA,NA,0,"not in generated ADSL"
"TRTEDT","integer","REVIEW",FALSE,NA,NA,0,"not in generated ADSL"
"TRTDURD","integer","REVIEW",FALSE,NA,NA,0,"not in generated ADSL"
"AVGDD","float","REVIEW",FALSE,NA,NA,0,"not in generated ADSL"
"CUMDOSE","float","REVIEW",FALSE,NA,NA,0,"not in generated ADSL"
"AGE","integer","EXECUTED",TRUE,100,100,254,"num tol 0.5 | mean|diff|=0.000"
"AGEGR1","text","REVIEW",FALSE,NA,NA,0,"not in generated ADSL"
"AGEGR1N","integer","REVIEW",FALSE,NA,NA,0,"not in generated ADSL"
"AGEU","text","EXECUTED",TRUE,100,100,254,"char exact"
"RACE","text","EXECUTED",TRUE,100,100,254,"char exact"
"RACEN","integer","REVIEW",FALSE,NA,NA,0,"not in generated ADSL"
"SEX","text","EXECUTED",TRUE,100,100,254,"char exact"
"ETHNIC","text","EXECUTED",TRUE,100,100,254,"char exact"
"SAFFL","text","REVIEW",FALSE,NA,NA,0,"not in generated ADSL"
"ITTFL","text","REVIEW",FALSE,NA,NA,0,"not in generated ADSL"
"EFFFL","text","REVIEW",FALSE,NA,NA,0,"not in generated ADSL"
"COMP8FL","text","REVIEW",FALSE,NA,NA,0,"not in generated ADSL"
"COMP16FL","text","REVIEW",FALSE,NA,NA,0,"not in generated ADSL"
"COMP24FL","text","REVIEW",FALSE,NA,NA,0,"not in generated ADSL"
"DISCONFL","text","REVIEW",FALSE,NA,NA,0,"not in generated ADSL"
"DSRAEFL","text","REVIEW",FALSE,NA,NA,0,"not in generated ADSL"
"DTHFL","text","EXECUTED",TRUE,1.2,1.2,254,"char exact"
"BMIBL","float","REVIEW",FALSE,NA,NA,0,"not in generated ADSL"
"BMIBLGR1","text","ERROR",FALSE,NA,NA,0,"not in generated ADSL"
"HEIGHTBL","float","REVIEW",FALSE,NA,NA,0,"not in generated ADSL"
"WEIGHTBL","float","REVIEW",FALSE,NA,NA,0,"not in generated ADSL"
"EDUCLVL","integer","REVIEW",FALSE,NA,NA,0,"not in generated ADSL"
"DISONSDT","integer","REVIEW",FALSE,NA,NA,0,"not in generated ADSL"
"DURDIS","float","REVIEW",FALSE,NA,NA,0,"not in generated ADSL"
"DURDSGR1","text","REVIEW",FALSE,NA,NA,0,"not in generated ADSL"
"VISIT1DT","integer","REVIEW",FALSE,NA,NA,0,"not in generated ADSL"
"RFSTDTC","text","EXECUTED",TRUE,100,100,254,"char exact"
"RFENDTC","text","EXECUTED",TRUE,100,100,254,"char exact"
"VISNUMEN","integer","REVIEW",FALSE,NA,NA,0,"not in generated ADSL"
"RFENDT","integer","EXECUTED",FALSE,NA,NA,0,"not in generated ADSL"
"DCDECOD","text","REVIEW",FALSE,NA,NA,0,"not in generated ADSL"
"EOSSTT","text","REVIEW",FALSE,NA,NA,0,"not in generated ADSL"
"DCSREAS","text","REVIEW",FALSE,NA,NA,0,"not in generated ADSL"
"MMSETOT","integer","REVIEW",FALSE,NA,NA,0,"not in generated ADSL"
