"variable","status","value_agree","value_agree_oracle_prec","n_joined","note"
"STUDYID","compared",100,NA,37132,"na_agree=1.00"
"SUBJID","not_produced",NA,NA,0,""
"USUBJID","compared",100,NA,59580,"set overlap (row populations differ by design)"
"TRTP","compared",100,NA,37132,"na_agree=1.00"
"TRTPN","not_produced",NA,NA,0,""
"TRTA","compared",100,NA,37132,"na_agree=1.00"
"TRTAN","not_produced",NA,NA,0,""
"TRTSDT","not_produced",NA,NA,0,""
"TRTEDT","not_produced",NA,NA,0,""
"AGE","not_produced",NA,NA,0,""
"AGEGR1","not_produced",NA,NA,0,""
"AGEGR1N","not_produced",NA,NA,0,""
"RACE","not_produced",NA,NA,0,""
"RACEN","not_produced",NA,NA,0,""
"SEX","not_produced",NA,NA,0,""
"COMP24FL","not_produced",NA,NA,0,""
"DSRAEFL","not_produced",NA,NA,0,""
"SAFFL","not_produced",NA,NA,0,""
"AVISIT","not_produced",NA,NA,0,""
"AVISITN","not_produced",NA,NA,0,""
"ADY","compared",100,NA,37132,"na_agree=1.00"
"ADT","compared",100,NA,37132,"na_agree=1.00"
"VISIT","compared",100,NA,37132,"na_agree=1.00"
"VISITNUM","compared",100,NA,37132,"na_agree=1.00"
"PARAM","not_produced",NA,NA,0,""
"PARAMCD","compared",100,NA,37132,"na_agree=1.00"
"PARAMN","not_produced",NA,NA,0,""
"PARCAT1","not_produced",NA,NA,0,""
"AVAL","compared",100,NA,37132,"na_agree=1.00"
"BASE","compared",0.4,NA,37132,"na_agree=0.99"
"CHG","compared",0.4,NA,37132,"na_agree=0.87"
"A1LO","compared",100,NA,37132,"na_agree=1.00"
"A1HI","not_produced",NA,NA,0,""
"R2A1LO","not_produced",NA,NA,0,""
"R2A1HI","not_produced",NA,NA,0,""
"BR2A1LO","not_produced",NA,NA,0,""
"BR2A1HI","not_produced",NA,NA,0,""
"ANL01FL","not_produced",NA,NA,0,""
"ALBTRVAL","not_produced",NA,NA,0,""
"ANRIND","not_produced",NA,NA,0,""
"BNRIND","not_produced",NA,NA,0,""
"ABLFL","not_produced",NA,NA,0,""
"AENTMTFL","not_produced",NA,NA,0,""
"LBSEQ","join_key",NA,NA,0,"row-identity key used for the join; not compared as a value"
"LBNRIND","compared",100,NA,37132,"na_agree=1.00"
"LBSTRESN","compared",100,NA,37132,"na_agree=1.00"
