"variable","status","value_agree","value_agree_oracle_prec","n_joined","note"
"STUDYID","compared",100,NA,254,"na_agree=1.00"
"USUBJID","compared",83,NA,306,"set overlap (row populations differ by design)"
"SUBJID","compared",100,NA,254,"na_agree=1.00"
"SITEID","compared",100,NA,254,"na_agree=1.00"
"SITEGR1","not_produced",NA,NA,0,""
"ARM","compared",100,NA,254,"na_agree=1.00"
"TRT01P","compared",100,NA,254,"na_agree=1.00"
"TRT01PN","not_produced",NA,NA,0,""
"TRT01A","compared",100,NA,254,"na_agree=1.00"
"TRT01AN","not_produced",NA,NA,0,""
"TRTSDT","not_produced",NA,NA,0,""
"TRTEDT","not_produced",NA,NA,0,""
"TRTDURD","not_produced",NA,NA,0,""
"AVGDD","not_produced",NA,NA,0,""
"CUMDOSE","not_produced",NA,NA,0,""
"AGE","compared",100,NA,254,"na_agree=1.00"
"AGEGR1","not_produced",NA,NA,0,""
"AGEGR1N","not_produced",NA,NA,0,""
"AGEU","compared",100,NA,254,"na_agree=1.00"
"RACE","compared",100,NA,254,"na_agree=1.00"
"RACEN","not_produced",NA,NA,0,""
"SEX","compared",100,NA,254,"na_agree=1.00"
"ETHNIC","compared",100,NA,254,"na_agree=1.00"
"SAFFL","not_produced",NA,NA,0,""
"ITTFL","not_produced",NA,NA,0,""
"EFFFL","not_produced",NA,NA,0,""
"COMP8FL","not_produced",NA,NA,0,""
"COMP16FL","not_produced",NA,NA,0,""
"COMP24FL","not_produced",NA,NA,0,""
"DISCONFL","not_produced",NA,NA,0,""
"DSRAEFL","not_produced",NA,NA,0,""
"DTHFL","compared",100,NA,254,"na_agree=1.00"
"BMIBL","not_produced",NA,NA,0,""
"BMIBLGR1","not_produced",NA,NA,0,""
"HEIGHTBL","not_produced",NA,NA,0,""
"WEIGHTBL","not_produced",NA,NA,0,""
"EDUCLVL","not_produced",NA,NA,0,""
"DISONSDT","not_produced",NA,NA,0,""
"DURDIS","not_produced",NA,NA,0,""
"DURDSGR1","not_produced",NA,NA,0,""
"VISIT1DT","not_produced",NA,NA,0,""
"RFSTDTC","compared",100,NA,254,"na_agree=1.00"
"RFENDTC","compared",100,NA,254,"na_agree=1.00"
"VISNUMEN","not_produced",NA,NA,0,""
"RFENDT","compared",100,NA,254,"na_agree=1.00"
"DCDECOD","not_produced",NA,NA,0,""
"EOSSTT","not_produced",NA,NA,0,""
"DCSREAS","not_produced",NA,NA,0,""
"MMSETOT","not_produced",NA,NA,0,""
