"variable","status","value_agree","value_agree_oracle_prec","n_joined","note"
"STUDYID","compared",100,NA,1191,"na_agree=1.00"
"SITEID","compared",100,NA,1191,"na_agree=1.00"
"USUBJID","compared",100,NA,1191,"set overlap (row populations differ by design)"
"TRTA","compared",100,NA,1191,"na_agree=1.00"
"TRTAN","not_produced",NA,NA,0,""
"AGE","compared",100,NA,1191,"na_agree=1.00"
"AGEGR1","not_produced",NA,NA,0,""
"AGEGR1N","not_produced",NA,NA,0,""
"RACE","compared",100,NA,1191,"na_agree=1.00"
"RACEN","not_produced",NA,NA,0,""
"SEX","compared",100,NA,1191,"na_agree=1.00"
"SAFFL","not_produced",NA,NA,0,""
"TRTSDT","compared",100,NA,1191,"na_agree=1.00"
"TRTEDT","not_produced",NA,NA,0,""
"ASTDT","not_produced",NA,NA,0,""
"ASTDTF","not_produced",NA,NA,0,""
"ASTDY","not_produced",NA,NA,0,""
"AENDT","not_produced",NA,NA,0,""
"AENDY","not_produced",NA,NA,0,""
"ADURN","not_produced",NA,NA,0,""
"ADURU","not_produced",NA,NA,0,""
"AETERM","compared",100,NA,1191,"na_agree=1.00"
"AELLT","compared",100,NA,1191,"na_agree=1.00"
"AELLTCD","all_missing",NA,NA,1191,"unpopulated on both sides; no value pairs to compare"
"AEDECOD","compared",100,NA,1191,"na_agree=1.00"
"AEPTCD","all_missing",NA,NA,1191,"unpopulated on both sides; no value pairs to compare"
"AEHLT","compared",100,NA,1191,"na_agree=1.00"
"AEHLTCD","all_missing",NA,NA,1191,"unpopulated on both sides; no value pairs to compare"
"AEHLGT","compared",100,NA,1191,"na_agree=1.00"
"AEHLGTCD","all_missing",NA,NA,1191,"unpopulated on both sides; no value pairs to compare"
"AEBODSYS","compared",100,NA,1191,"na_agree=1.00"
"AESOC","compared",100,NA,1191,"na_agree=1.00"
"AESOCCD","all_missing",NA,NA,1191,"unpopulated on both sides; no value pairs to compare"
"AESEV","compared",100,NA,1191,"na_agree=1.00"
"AESER","compared",100,NA,1191,"na_agree=1.00"
"AESCAN","compared",100,NA,1191,"na_agree=1.00"
"AESCONG","compared",100,NA,1191,"na_agree=1.00"
"AESDISAB","compared",100,NA,1191,"na_agree=1.00"
"AESDTH","compared",100,NA,1191,"na_agree=1.00"
"AESHOSP","compared",100,NA,1191,"na_agree=1.00"
"AESLIFE","compared",100,NA,1191,"na_agree=1.00"
"AESOD","compared",100,NA,1191,"na_agree=1.00"
"AEREL","compared",100,NA,1191,"na_agree=1.00"
"AEACN","compared",100,NA,1191,"na_agree=1.00"
"AEOUT","compared",100,NA,1191,"na_agree=1.00"
"AESEQ","join_key",NA,NA,0,"row-identity key used for the join; not compared as a value"
"TRTEMFL","not_produced",NA,NA,0,""
"AOCCFL","not_produced",NA,NA,0,""
"AOCCSFL","not_produced",NA,NA,0,""
"AOCCPFL","not_produced",NA,NA,0,""
"AOCC02FL","not_produced",NA,NA,0,""
"AOCC03FL","not_produced",NA,NA,0,""
"AOCC04FL","not_produced",NA,NA,0,""
"CQ01NAM","not_produced",NA,NA,0,""
"AOCC01FL","not_produced",NA,NA,0,""
