"variable","status","value_agree","value_agree_oracle_prec","n_joined","note"
"STUDYID","compared",100,NA,254,"na_agree=1.00"
"USUBJID","compared",83,NA,306,"set overlap (row populations differ by design)"
"SUBJID","compared",100,NA,254,"na_agree=1.00"
"SITEID","compared",100,NA,254,"na_agree=1.00"
"SITEGR1","compared",87.8,NA,254,"na_agree=1.00"
"ARM","compared",100,NA,254,"na_agree=1.00"
"TRT01P","compared",100,NA,254,"na_agree=1.00"
"TRT01PN","compared",100,NA,254,"na_agree=1.00"
"TRT01A","compared",100,NA,254,"na_agree=1.00"
"TRT01AN","compared",100,NA,254,"na_agree=1.00"
"TRTSDT","not_produced",NA,NA,0,"not derived by this arm (column only present via the DM seed)"
"TRTEDT","not_produced",NA,NA,0,"not derived by this arm (column only present via the DM seed)"
"TRTDURD","not_produced",NA,NA,0,"not derived by this arm (column only present via the DM seed)"
"AVGDD","not_produced",NA,NA,0,"not derived by this arm (column only present via the DM seed)"
"CUMDOSE","not_produced",NA,NA,0,"not derived by this arm (column only present via the DM seed)"
"AGE","compared",100,NA,254,"na_agree=1.00"
"AGEGR1","not_produced",NA,NA,0,"not derived by this arm (column only present via the DM seed)"
"AGEGR1N","compared",100,NA,254,"na_agree=1.00"
"AGEU","compared",100,NA,254,"na_agree=1.00"
"RACE","compared",100,NA,254,"na_agree=1.00"
"RACEN","compared",100,NA,254,"na_agree=1.00"
"SEX","compared",100,NA,254,"na_agree=1.00"
"ETHNIC","not_produced",NA,NA,254,"not derived by this arm (column only present via the DM seed)"
"SAFFL","not_produced",NA,NA,0,"not derived by this arm (column only present via the DM seed)"
"ITTFL","compared",100,NA,254,"na_agree=1.00"
"EFFFL","not_produced",NA,NA,0,"not derived by this arm (column only present via the DM seed)"
"COMP8FL","not_produced",NA,NA,0,"not derived by this arm (column only present via the DM seed)"
"COMP16FL","not_produced",NA,NA,0,"not derived by this arm (column only present via the DM seed)"
"COMP24FL","compared",100,NA,254,"na_agree=1.00"
"DISCONFL","not_produced",NA,NA,0,"not derived by this arm (column only present via the DM seed)"
"DSRAEFL","not_produced",NA,NA,0,"not derived by this arm (column only present via the DM seed)"
"DTHFL","not_produced",NA,NA,254,"not derived by this arm (column only present via the DM seed)"
"BMIBL","not_produced",NA,NA,0,"not derived by this arm (column only present via the DM seed)"
"BMIBLGR1","not_produced",NA,NA,0,"not derived by this arm (column only present via the DM seed)"
"HEIGHTBL","compared",19.7,98.8,254,"na_agree=1.00"
"WEIGHTBL","not_produced",NA,NA,0,"not derived by this arm (column only present via the DM seed)"
"EDUCLVL","not_produced",NA,NA,0,"not derived by this arm (column only present via the DM seed)"
"DISONSDT","compared",100,NA,254,"na_agree=1.00"
"DURDIS","not_produced",NA,NA,0,"not derived by this arm (column only present via the DM seed)"
"DURDSGR1","not_produced",NA,NA,0,"not derived by this arm (column only present via the DM seed)"
"VISIT1DT","not_produced",NA,NA,0,"not derived by this arm (column only present via the DM seed)"
"RFSTDTC","compared",100,NA,254,"na_agree=1.00"
"RFENDTC","compared",100,NA,254,"na_agree=1.00"
"VISNUMEN","compared",0,NA,254,"na_agree=0.00"
"RFENDT","not_produced",NA,NA,0,""
"DCDECOD","compared",100,NA,254,"na_agree=1.00"
"EOSSTT","compared",100,NA,254,"na_agree=1.00"
"DCSREAS","compared",55.5,NA,254,"na_agree=1.00"
"MMSETOT","compared",100,NA,254,"na_agree=1.00"
