"variable","status","loc","comment_lines","bare_logic_points","tokens_in","tokens_out","cost_usd","attempts","note"
"STUDYID","ok",11,6,4,291,103,0.00019,1,""
"USUBJID","ok",17,7,9,292,138,0.00023,1,""
"SUBJID","ok",12,7,4,281,118,0.00021,1,""
"SITEID","ok",18,8,9,463,338,5e-04,2,"static sandbox gate: source[ ]*[(]"
"SITEGR1","ok",17,10,6,316,168,0.00027,1,""
"ARM","ok",12,7,4,312,90,0.00018,1,""
"TRT01P","ok",11,6,4,321,79,0.00017,1,""
"TRT01PN","ok",19,7,11,323,166,0.00027,1,""
"TRT01A","ok",13,8,4,340,113,0.00022,1,""
"TRT01AN","ok",25,11,13,322,237,0.00035,1,""
"TRTSDT","ok",18,8,9,168,167,0.00023,1,NA
"TRTEDT","ok",58,19,34,216,718,0.00085,1,NA
"TRTDURD","ok",17,7,9,288,138,0.00023,1,""
"AVGDD","ok",18,7,10,286,150,0.00024,1,""
"CUMDOSE","ok",84,28,45,481,1363,0.00163,1,""
"AGE","ok",11,6,4,143,80,0.00013,1,NA
"AGEGR1","ok",20,9,10,188,182,0.00025,1,NA
"AGEGR1N","ok",21,10,10,340,191,3e-04,1,""
"AGEU","ok",10,5,4,283,82,0.00017,1,""
"RACE","ok",11,6,4,365,100,0.00021,1,""
"RACEN","ok",21,7,13,336,250,0.00037,1,""
"SEX","ok",11,6,4,284,91,0.00018,1,""
"ETHNIC","ok",17,8,8,316,156,0.00026,1,""
"SAFFL","ok",18,7,10,174,132,0.00019,1,NA
"ITTFL","ok",18,7,10,167,133,0.00019,1,NA
"EFFFL","ok",40,14,23,336,440,0.00057,1,""
"COMP8FL","ok",30,12,16,315,375,5e-04,1,""
"COMP16FL","ok",33,11,20,315,346,0.00047,1,""
"COMP24FL","ok",39,12,24,315,425,0.00055,1,""
"DISCONFL","ok",19,8,10,292,139,0.00023,1,""
"DSRAEFL","ok",18,7,10,290,141,0.00023,1,""
"DTHFL","ok",17,7,9,279,142,0.00023,1,""
"BMIBL","ok",13,6,6,163,108,0.00016,1,NA
"BMIBLGR1","ok",22,10,11,361,224,0.00034,1,""
"HEIGHTBL","ok",19,9,8,298,212,0.00031,1,""
"WEIGHTBL","ok",16,6,9,298,139,0.00023,1,""
"EDUCLVL","ok",23,7,14,291,208,0.00031,1,""
"DISONSDT","ok",23,8,14,172,224,0.00029,1,NA
"DURDIS","ok",29,14,14,289,330,0.00044,1,""
"DURDSGR1","ok",19,8,10,308,171,0.00027,1,""
"VISIT1DT","ok",16,6,9,297,142,0.00024,1,""
"RFSTDTC","ok",13,8,4,285,120,0.00021,1,""
"RFENDTC","ok",12,7,4,282,115,2e-04,1,""
"VISNUMEN","ok",20,9,9,333,231,0.00034,1,""
"RFENDT","ok",17,7,9,285,141,0.00023,1,""
"DCDECOD","ok",23,8,13,418,223,0.00036,1,""
"EOSSTT","ok",20,9,10,310,173,0.00027,1,""
"DCSREAS","ok",58,13,41,406,640,0.00081,1,""
"MMSETOT","ok",20,7,12,297,223,0.00033,1,""
