"variable","arm","loc","comment_lines","bare_logic_points"
"STUDYID","constrained_ir",8,6,1
"USUBJID","constrained_ir",8,6,1
"SUBJID","constrained_ir",8,6,1
"SITEID","constrained_ir",8,6,1
"ARM","constrained_ir",8,6,1
"TRT01P","constrained_ir",8,6,1
"TRT01A","constrained_ir",8,6,1
"TRTDURD","constrained_ir",7,6,0
"AVGDD","constrained_ir",7,6,0
"AGE","constrained_ir",8,6,1
"AGEU","constrained_ir",8,6,1
"RACE","constrained_ir",8,6,1
"SEX","constrained_ir",8,6,1
"ETHNIC","constrained_ir",8,6,1
"ITTFL","constrained_ir",13,8,4
"DTHFL","constrained_ir",8,6,1
"BMIBL","constrained_ir",7,6,0
"BMIBLGR1","constrained_ir",18,8,9
"HEIGHTBL","constrained_ir",16,7,8
"WEIGHTBL","constrained_ir",16,7,8
"EDUCLVL","constrained_ir",16,7,8
"RFSTDTC","constrained_ir",8,6,1
"RFENDTC","constrained_ir",8,6,1
"EOSSTT","constrained_ir",13,8,4
"STUDYID","freeform",11,6,4
"USUBJID","freeform",17,7,9
"SUBJID","freeform",12,7,4
"SITEID","freeform",18,8,9
"SITEGR1","freeform",17,10,6
"ARM","freeform",12,7,4
"TRT01P","freeform",11,6,4
"TRT01PN","freeform",19,7,11
"TRT01A","freeform",13,8,4
"TRT01AN","freeform",25,11,13
"TRTSDT","freeform",18,8,9
"TRTEDT","freeform",58,19,34
"TRTDURD","freeform",17,7,9
"AVGDD","freeform",18,7,10
"CUMDOSE","freeform",84,28,45
"AGE","freeform",11,6,4
"AGEGR1","freeform",20,9,10
"AGEGR1N","freeform",21,10,10
"AGEU","freeform",10,5,4
"RACE","freeform",11,6,4
"RACEN","freeform",21,7,13
"SEX","freeform",11,6,4
"ETHNIC","freeform",17,8,8
"SAFFL","freeform",18,7,10
"ITTFL","freeform",18,7,10
"EFFFL","freeform",40,14,23
"COMP8FL","freeform",30,12,16
"COMP16FL","freeform",33,11,20
"COMP24FL","freeform",39,12,24
"DISCONFL","freeform",19,8,10
"DSRAEFL","freeform",18,7,10
"DTHFL","freeform",17,7,9
"BMIBL","freeform",13,6,6
"BMIBLGR1","freeform",22,10,11
"HEIGHTBL","freeform",19,9,8
"WEIGHTBL","freeform",16,6,9
"EDUCLVL","freeform",23,7,14
"DISONSDT","freeform",23,8,14
"DURDIS","freeform",29,14,14
"DURDSGR1","freeform",19,8,10
"VISIT1DT","freeform",16,6,9
"RFSTDTC","freeform",13,8,4
"RFENDTC","freeform",12,7,4
"VISNUMEN","freeform",20,9,9
"RFENDT","freeform",17,7,9
"DCDECOD","freeform",23,8,13
"EOSSTT","freeform",20,9,10
"DCSREAS","freeform",58,13,41
"MMSETOT","freeform",20,7,12
