"variable","status","note"
"STUDYID","EXECUTED",""
"USUBJID","EXECUTED",""
"BMIBLGR1","ERROR","[duplicate_records] admiral::derive_param_computed() [step 1/2, layer compute_param]: message redacted (may contain data values); enable options(admiralagent.error_detail = TRUE) and read aa_last_error_detail()"
"SUBJID","EXECUTED",""
"SITEID","EXECUTED",""
"ARM","EXECUTED",""
"TRT01P","EXECUTED",""
"TRT01A","EXECUTED",""
"AGE","EXECUTED",""
"AGEU","EXECUTED",""
"RACE","EXECUTED",""
"SEX","EXECUTED",""
"ETHNIC","EXECUTED",""
"DTHFL","EXECUTED",""
"RFSTDTC","EXECUTED",""
"RFENDTC","EXECUTED",""
"RFENDT","EXECUTED",""
"SITEGR1","REVIEW","needs human decision"
"TRT01PN","REVIEW","needs human decision"
"TRT01AN","REVIEW","needs human decision"
"TRTSDT","REVIEW","needs human decision"
"TRTEDT","REVIEW","needs human decision"
"TRTDURD","REVIEW","needs human decision"
"AVGDD","REVIEW","needs human decision"
"CUMDOSE","REVIEW","needs human decision"
"AGEGR1","REVIEW","needs human decision"
"AGEGR1N","REVIEW","needs human decision"
"RACEN","REVIEW","needs human decision"
"SAFFL","REVIEW","needs human decision"
"ITTFL","REVIEW","needs human decision"
"EFFFL","REVIEW","needs human decision"
"COMP8FL","REVIEW","needs human decision"
"COMP16FL","REVIEW","needs human decision"
"COMP24FL","REVIEW","needs human decision"
"DISCONFL","REVIEW","needs human decision"
"DSRAEFL","REVIEW","needs human decision"
"BMIBL","REVIEW","needs human decision"
"HEIGHTBL","REVIEW","needs human decision"
"WEIGHTBL","REVIEW","needs human decision"
"EDUCLVL","REVIEW","needs human decision"
"DISONSDT","REVIEW","needs human decision"
"DURDIS","REVIEW","needs human decision"
"DURDSGR1","REVIEW","needs human decision"
"VISIT1DT","REVIEW","needs human decision"
"VISNUMEN","REVIEW","needs human decision"
"DCDECOD","REVIEW","needs human decision"
"EOSSTT","REVIEW","needs human decision"
"DCSREAS","REVIEW","needs human decision"
"MMSETOT","REVIEW","needs human decision"
