{"schema":"admiralagent-audit-1","seq":1,"time":"2026-10-01T17:47:27-0400","package_version":"0.1.0","event":"execute_variable","details":{"run_id":"runbd78abd1df3","dataset":"ADAE","variable":"STUDYID","status":"EXECUTED","layers":"assign","note":""},"prev":"0000000000000000000000000000000000000000000000000000000000000000","mode":"sha256","digest":"992171c2e5f0ec933ff5e5c4b1356c743995e5c4260b3b7ee0c3933cfbfcf652"}
{"schema":"admiralagent-audit-1","seq":2,"time":"2026-10-01T17:47:27-0400","package_version":"0.1.0","event":"execute_variable","details":{"run_id":"runbd78abd1df3","dataset":"ADAE","variable":"SITEID","status":"ERROR","layers":"assign","note":"column 'SITEID' is missing from source dataset 'ADAE'"},"prev":"992171c2e5f0ec933ff5e5c4b1356c743995e5c4260b3b7ee0c3933cfbfcf652","mode":"sha256","digest":"7873c1b3576a5b5163c281ec0b76ff1f8bfc88386564c063b7309b239f230b0b"}
{"schema":"admiralagent-audit-1","seq":3,"time":"2026-10-01T17:47:27-0400","package_version":"0.1.0","event":"execute_variable","details":{"run_id":"runbd78abd1df3","dataset":"ADAE","variable":"USUBJID","status":"EXECUTED","layers":"assign","note":""},"prev":"7873c1b3576a5b5163c281ec0b76ff1f8bfc88386564c063b7309b239f230b0b","mode":"sha256","digest":"5cf57ae4b551cb640984add61bf70a985de36f86147bba86d581b5a2130d0850"}
{"schema":"admiralagent-audit-1","seq":4,"time":"2026-10-01T17:47:27-0400","package_version":"0.1.0","event":"execute_variable","details":{"run_id":"runbd78abd1df3","dataset":"ADAE","variable":"TRTA","status":"ERROR","layers":"assign","note":"column 'TRT01A' is missing from source dataset 'ADAE'"},"prev":"5cf57ae4b551cb640984add61bf70a985de36f86147bba86d581b5a2130d0850","mode":"sha256","digest":"1b35e6fa65fea1eadc6e08672e5eeb8bf128d2a9db8138a2ceb9a900d1edf668"}
{"schema":"admiralagent-audit-1","seq":5,"time":"2026-10-01T17:47:27-0400","package_version":"0.1.0","event":"execute_variable","details":{"run_id":"runbd78abd1df3","dataset":"ADAE","variable":"TRTAN","status":"ERROR","layers":"assign","note":"column 'TRT01AN' is missing from source dataset 'ADAE'"},"prev":"1b35e6fa65fea1eadc6e08672e5eeb8bf128d2a9db8138a2ceb9a900d1edf668","mode":"sha256","digest":"b91820c9064b4fb1665f12101c5bff2745789bc1704afe75ffad982da7660571"}
{"schema":"admiralagent-audit-1","seq":6,"time":"2026-10-01T17:47:27-0400","package_version":"0.1.0","event":"execute_variable","details":{"run_id":"runbd78abd1df3","dataset":"ADAE","variable":"AGE","status":"ERROR","layers":"assign","note":"column 'AGE' is missing from source dataset 'ADAE'"},"prev":"b91820c9064b4fb1665f12101c5bff2745789bc1704afe75ffad982da7660571","mode":"sha256","digest":"22ffbe5cceea00c5e0dfe8b901e7aa7df9f911a37d659c85add6dcb45bd2b681"}
{"schema":"admiralagent-audit-1","seq":7,"time":"2026-10-01T17:47:27-0400","package_version":"0.1.0","event":"execute_variable","details":{"run_id":"runbd78abd1df3","dataset":"ADAE","variable":"AGEGR1","status":"ERROR","layers":"assign","note":"column 'AGEGR1' is missing from source dataset 'ADAE'"},"prev":"22ffbe5cceea00c5e0dfe8b901e7aa7df9f911a37d659c85add6dcb45bd2b681","mode":"sha256","digest":"85153f4c348385ef8a182fb7776f0dea993dc6f12dd06abf91747b28f27f86df"}
{"schema":"admiralagent-audit-1","seq":8,"time":"2026-10-01T17:47:27-0400","package_version":"0.1.0","event":"execute_variable","details":{"run_id":"runbd78abd1df3","dataset":"ADAE","variable":"AGEGR1N","status":"ERROR","layers":"assign","note":"column 'AGEGR1N' is missing from source dataset 'ADAE'"},"prev":"85153f4c348385ef8a182fb7776f0dea993dc6f12dd06abf91747b28f27f86df","mode":"sha256","digest":"a6545d69723f364866e8e1f9de133693230286dafb38f5fa55d0d541b8888d54"}
{"schema":"admiralagent-audit-1","seq":9,"time":"2026-10-01T17:47:27-0400","package_version":"0.1.0","event":"execute_variable","details":{"run_id":"runbd78abd1df3","dataset":"ADAE","variable":"RACE","status":"ERROR","layers":"assign","note":"column 'RACE' is missing from source dataset 'ADAE'"},"prev":"a6545d69723f364866e8e1f9de133693230286dafb38f5fa55d0d541b8888d54","mode":"sha256","digest":"e5233edb09c0aeb6dace27ee7ad6907c23bce51f6bdd9f60aacf2b2d0d8cb7f2"}
{"schema":"admiralagent-audit-1","seq":10,"time":"2026-10-01T17:47:27-0400","package_version":"0.1.0","event":"execute_variable","details":{"run_id":"runbd78abd1df3","dataset":"ADAE","variable":"RACEN","status":"ERROR","layers":"assign","note":"column 'RACEN' is missing from source dataset 'ADAE'"},"prev":"e5233edb09c0aeb6dace27ee7ad6907c23bce51f6bdd9f60aacf2b2d0d8cb7f2","mode":"sha256","digest":"30c244d2e4d580839cadceeb5af75cede0509f8e02caf19985cad297ceaa8707"}
{"schema":"admiralagent-audit-1","seq":11,"time":"2026-10-01T17:47:27-0400","package_version":"0.1.0","event":"execute_variable","details":{"run_id":"runbd78abd1df3","dataset":"ADAE","variable":"SEX","status":"ERROR","layers":"assign","note":"column 'SEX' is missing from source dataset 'ADAE'"},"prev":"30c244d2e4d580839cadceeb5af75cede0509f8e02caf19985cad297ceaa8707","mode":"sha256","digest":"30c4a2813d567c2994389d574b4157b7acf16577b103613998994a9be01bec99"}
{"schema":"admiralagent-audit-1","seq":12,"time":"2026-10-01T17:47:27-0400","package_version":"0.1.0","event":"execute_variable","details":{"run_id":"runbd78abd1df3","dataset":"ADAE","variable":"SAFFL","status":"ERROR","layers":"assign","note":"column 'SAFFL' is missing from source dataset 'ADAE'"},"prev":"30c4a2813d567c2994389d574b4157b7acf16577b103613998994a9be01bec99","mode":"sha256","digest":"d35c78e7c9a69fe6298c10c43c90c801839110ac4858e07447e1a72ebbcaef6f"}
{"schema":"admiralagent-audit-1","seq":13,"time":"2026-10-01T17:47:27-0400","package_version":"0.1.0","event":"execute_variable","details":{"run_id":"runbd78abd1df3","dataset":"ADAE","variable":"TRTSDT","status":"ERROR","layers":"assign","note":"column 'TRTSDT' is missing from source dataset 'ADAE'"},"prev":"d35c78e7c9a69fe6298c10c43c90c801839110ac4858e07447e1a72ebbcaef6f","mode":"sha256","digest":"95c234003c4aed5f03036436c0d95d3b38bebda7201f684dd278593db1953fc4"}
{"schema":"admiralagent-audit-1","seq":14,"time":"2026-10-01T17:47:27-0400","package_version":"0.1.0","event":"execute_variable","details":{"run_id":"runbd78abd1df3","dataset":"ADAE","variable":"TRTEDT","status":"ERROR","layers":"assign","note":"column 'TRTEDT' is missing from source dataset 'ADAE'"},"prev":"95c234003c4aed5f03036436c0d95d3b38bebda7201f684dd278593db1953fc4","mode":"sha256","digest":"2f34e142e3d5c65e4f683b595ab1e1eedf6377d5c69ae5bb894e99b38af2b627"}
{"schema":"admiralagent-audit-1","seq":15,"time":"2026-10-01T17:47:28-0400","package_version":"0.1.0","event":"execute_variable","details":{"run_id":"runbd78abd1df3","dataset":"ADAE","variable":"AETERM","status":"EXECUTED","layers":"assign","note":""},"prev":"2f34e142e3d5c65e4f683b595ab1e1eedf6377d5c69ae5bb894e99b38af2b627","mode":"sha256","digest":"c47c7ac87ca720263526436bcb7e8a4f7a2ae3876dd5a91ff4ad77b20d7717e5"}
{"schema":"admiralagent-audit-1","seq":16,"time":"2026-10-01T17:47:28-0400","package_version":"0.1.0","event":"execute_variable","details":{"run_id":"runbd78abd1df3","dataset":"ADAE","variable":"AELLT","status":"EXECUTED","layers":"assign","note":""},"prev":"c47c7ac87ca720263526436bcb7e8a4f7a2ae3876dd5a91ff4ad77b20d7717e5","mode":"sha256","digest":"5f9dc9d180ae8b0fedd6bc34e17e7f6d9461f01ba77fb7585a29cb01c4cc5213"}
{"schema":"admiralagent-audit-1","seq":17,"time":"2026-10-01T17:47:28-0400","package_version":"0.1.0","event":"execute_variable","details":{"run_id":"runbd78abd1df3","dataset":"ADAE","variable":"AELLTCD","status":"EXECUTED","layers":"assign","note":""},"prev":"5f9dc9d180ae8b0fedd6bc34e17e7f6d9461f01ba77fb7585a29cb01c4cc5213","mode":"sha256","digest":"84e51a5b486976a2f5cac34f68b4f1b878d48d1a0dba348b5321b55588f134f0"}
{"schema":"admiralagent-audit-1","seq":18,"time":"2026-10-01T17:47:28-0400","package_version":"0.1.0","event":"execute_variable","details":{"run_id":"runbd78abd1df3","dataset":"ADAE","variable":"AEDECOD","status":"EXECUTED","layers":"assign","note":""},"prev":"84e51a5b486976a2f5cac34f68b4f1b878d48d1a0dba348b5321b55588f134f0","mode":"sha256","digest":"31bc3b5d1124d7946f88ea47f00c41fada19ff95ebf9f1f35ab660e5c518db74"}
{"schema":"admiralagent-audit-1","seq":19,"time":"2026-10-01T17:47:28-0400","package_version":"0.1.0","event":"execute_variable","details":{"run_id":"runbd78abd1df3","dataset":"ADAE","variable":"AEPTCD","status":"EXECUTED","layers":"assign","note":""},"prev":"31bc3b5d1124d7946f88ea47f00c41fada19ff95ebf9f1f35ab660e5c518db74","mode":"sha256","digest":"0e3f1fb36205d40b4bc976824da694daf8d477861b47309b794cef1e4a173e0f"}
{"schema":"admiralagent-audit-1","seq":20,"time":"2026-10-01T17:47:28-0400","package_version":"0.1.0","event":"execute_variable","details":{"run_id":"runbd78abd1df3","dataset":"ADAE","variable":"AEHLT","status":"EXECUTED","layers":"assign","note":""},"prev":"0e3f1fb36205d40b4bc976824da694daf8d477861b47309b794cef1e4a173e0f","mode":"sha256","digest":"092418d21dc1cc2c681ac69b42da7943302b027bac52b9b13572cdad03b85759"}
{"schema":"admiralagent-audit-1","seq":21,"time":"2026-10-01T17:47:28-0400","package_version":"0.1.0","event":"execute_variable","details":{"run_id":"runbd78abd1df3","dataset":"ADAE","variable":"AEHLTCD","status":"EXECUTED","layers":"assign","note":""},"prev":"092418d21dc1cc2c681ac69b42da7943302b027bac52b9b13572cdad03b85759","mode":"sha256","digest":"1ff82cec25416fab3f68ce6b1f70615e4406d9eff44200be4056c7798ff47304"}
{"schema":"admiralagent-audit-1","seq":22,"time":"2026-10-01T17:47:28-0400","package_version":"0.1.0","event":"execute_variable","details":{"run_id":"runbd78abd1df3","dataset":"ADAE","variable":"AEHLGT","status":"EXECUTED","layers":"assign","note":""},"prev":"1ff82cec25416fab3f68ce6b1f70615e4406d9eff44200be4056c7798ff47304","mode":"sha256","digest":"0565c39b95d0cde0dcf4988850af6abca88049b0e3c4b5dcb8c06a2f37242fa2"}
{"schema":"admiralagent-audit-1","seq":23,"time":"2026-10-01T17:47:28-0400","package_version":"0.1.0","event":"execute_variable","details":{"run_id":"runbd78abd1df3","dataset":"ADAE","variable":"AEHLGTCD","status":"EXECUTED","layers":"assign","note":""},"prev":"0565c39b95d0cde0dcf4988850af6abca88049b0e3c4b5dcb8c06a2f37242fa2","mode":"sha256","digest":"4e88befed55a00e2e51606a5645ca3f7f9fd2e95856364605a8774f0ccf62868"}
{"schema":"admiralagent-audit-1","seq":24,"time":"2026-10-01T17:47:28-0400","package_version":"0.1.0","event":"execute_variable","details":{"run_id":"runbd78abd1df3","dataset":"ADAE","variable":"AEBODSYS","status":"EXECUTED","layers":"assign","note":""},"prev":"4e88befed55a00e2e51606a5645ca3f7f9fd2e95856364605a8774f0ccf62868","mode":"sha256","digest":"90b4498e5150e849e8f8827e91909f2bfac6c59e6374f2027dfe74f1d3604ada"}
{"schema":"admiralagent-audit-1","seq":25,"time":"2026-10-01T17:47:28-0400","package_version":"0.1.0","event":"execute_variable","details":{"run_id":"runbd78abd1df3","dataset":"ADAE","variable":"AESOC","status":"EXECUTED","layers":"assign","note":""},"prev":"90b4498e5150e849e8f8827e91909f2bfac6c59e6374f2027dfe74f1d3604ada","mode":"sha256","digest":"af6273abe9205cd4b8531eb6a9ac17fcd4188e1e0113edcb9753f3200d864e11"}
{"schema":"admiralagent-audit-1","seq":26,"time":"2026-10-01T17:47:28-0400","package_version":"0.1.0","event":"execute_variable","details":{"run_id":"runbd78abd1df3","dataset":"ADAE","variable":"AESOCCD","status":"EXECUTED","layers":"assign","note":""},"prev":"af6273abe9205cd4b8531eb6a9ac17fcd4188e1e0113edcb9753f3200d864e11","mode":"sha256","digest":"9e06a70e24e5c6219f504ccb55774901f037ade969f66336b867bc652d1d1996"}
{"schema":"admiralagent-audit-1","seq":27,"time":"2026-10-01T17:47:28-0400","package_version":"0.1.0","event":"execute_variable","details":{"run_id":"runbd78abd1df3","dataset":"ADAE","variable":"AESEV","status":"EXECUTED","layers":"assign","note":""},"prev":"9e06a70e24e5c6219f504ccb55774901f037ade969f66336b867bc652d1d1996","mode":"sha256","digest":"88ac21571c803ba54e2a1d7bf4e8e78401a0e32e1b7952cbed16fa0c5a8652ec"}
{"schema":"admiralagent-audit-1","seq":28,"time":"2026-10-01T17:47:28-0400","package_version":"0.1.0","event":"execute_variable","details":{"run_id":"runbd78abd1df3","dataset":"ADAE","variable":"AESER","status":"EXECUTED","layers":"assign","note":""},"prev":"88ac21571c803ba54e2a1d7bf4e8e78401a0e32e1b7952cbed16fa0c5a8652ec","mode":"sha256","digest":"d50d68113d62106a355eb763418f547f7c184a9152940aec6a72ff5141c17028"}
{"schema":"admiralagent-audit-1","seq":29,"time":"2026-10-01T17:47:28-0400","package_version":"0.1.0","event":"execute_variable","details":{"run_id":"runbd78abd1df3","dataset":"ADAE","variable":"AESCAN","status":"EXECUTED","layers":"assign","note":""},"prev":"d50d68113d62106a355eb763418f547f7c184a9152940aec6a72ff5141c17028","mode":"sha256","digest":"1cf4c5fcd0f047c2b26a6cedadb578a90e6776e87f669bcde325dc552f54e323"}
{"schema":"admiralagent-audit-1","seq":30,"time":"2026-10-01T17:47:28-0400","package_version":"0.1.0","event":"execute_variable","details":{"run_id":"runbd78abd1df3","dataset":"ADAE","variable":"AESCONG","status":"EXECUTED","layers":"assign","note":""},"prev":"1cf4c5fcd0f047c2b26a6cedadb578a90e6776e87f669bcde325dc552f54e323","mode":"sha256","digest":"e10b1470128de093af2593245e2e2ab12433010e3fef8cb61d54d541a4a2cc82"}
{"schema":"admiralagent-audit-1","seq":31,"time":"2026-10-01T17:47:28-0400","package_version":"0.1.0","event":"execute_variable","details":{"run_id":"runbd78abd1df3","dataset":"ADAE","variable":"AESDISAB","status":"EXECUTED","layers":"assign","note":""},"prev":"e10b1470128de093af2593245e2e2ab12433010e3fef8cb61d54d541a4a2cc82","mode":"sha256","digest":"60bc5663fafd00a93483704798ffa8e00e603ca87889aa807b776716340715e1"}
{"schema":"admiralagent-audit-1","seq":32,"time":"2026-10-01T17:47:28-0400","package_version":"0.1.0","event":"execute_variable","details":{"run_id":"runbd78abd1df3","dataset":"ADAE","variable":"AESDTH","status":"EXECUTED","layers":"assign","note":""},"prev":"60bc5663fafd00a93483704798ffa8e00e603ca87889aa807b776716340715e1","mode":"sha256","digest":"9cd2ae7a16c9885bd54b609009205ca0c101868b70b6ecbacc177090e181eba1"}
{"schema":"admiralagent-audit-1","seq":33,"time":"2026-10-01T17:47:28-0400","package_version":"0.1.0","event":"execute_variable","details":{"run_id":"runbd78abd1df3","dataset":"ADAE","variable":"AESHOSP","status":"EXECUTED","layers":"assign","note":""},"prev":"9cd2ae7a16c9885bd54b609009205ca0c101868b70b6ecbacc177090e181eba1","mode":"sha256","digest":"d173751e50ae637efb6524e50c0a8b68328877ccfbe6ef3eebe9bbfcbd2c54f0"}
{"schema":"admiralagent-audit-1","seq":34,"time":"2026-10-01T17:47:28-0400","package_version":"0.1.0","event":"execute_variable","details":{"run_id":"runbd78abd1df3","dataset":"ADAE","variable":"AESLIFE","status":"EXECUTED","layers":"assign","note":""},"prev":"d173751e50ae637efb6524e50c0a8b68328877ccfbe6ef3eebe9bbfcbd2c54f0","mode":"sha256","digest":"e7399085d3d16a7a8c37d22a25e123975257e18d0a1be56049cd411514ea2d36"}
{"schema":"admiralagent-audit-1","seq":35,"time":"2026-10-01T17:47:28-0400","package_version":"0.1.0","event":"execute_variable","details":{"run_id":"runbd78abd1df3","dataset":"ADAE","variable":"AESOD","status":"EXECUTED","layers":"assign","note":""},"prev":"e7399085d3d16a7a8c37d22a25e123975257e18d0a1be56049cd411514ea2d36","mode":"sha256","digest":"ff85d763803aa39958aaa9d1bf22b06f49e7b314d221b6c58402059c26e45a45"}
{"schema":"admiralagent-audit-1","seq":36,"time":"2026-10-01T17:47:28-0400","package_version":"0.1.0","event":"execute_variable","details":{"run_id":"runbd78abd1df3","dataset":"ADAE","variable":"AEREL","status":"EXECUTED","layers":"assign","note":""},"prev":"ff85d763803aa39958aaa9d1bf22b06f49e7b314d221b6c58402059c26e45a45","mode":"sha256","digest":"859e4381276297e16413fcdbda1043e441ce2d3a18a912433e11a05b0015cd83"}
{"schema":"admiralagent-audit-1","seq":37,"time":"2026-10-01T17:47:28-0400","package_version":"0.1.0","event":"execute_variable","details":{"run_id":"runbd78abd1df3","dataset":"ADAE","variable":"AEACN","status":"EXECUTED","layers":"assign","note":""},"prev":"859e4381276297e16413fcdbda1043e441ce2d3a18a912433e11a05b0015cd83","mode":"sha256","digest":"36201286f5f0746c5c729e2c2d8d4a48822edfd9005b9606d8de379898319054"}
{"schema":"admiralagent-audit-1","seq":38,"time":"2026-10-01T17:47:28-0400","package_version":"0.1.0","event":"execute_variable","details":{"run_id":"runbd78abd1df3","dataset":"ADAE","variable":"AEOUT","status":"EXECUTED","layers":"assign","note":""},"prev":"36201286f5f0746c5c729e2c2d8d4a48822edfd9005b9606d8de379898319054","mode":"sha256","digest":"f3cdade445b4f16e68f89474bf11e89df1997b8cbf4906507248f0cf9027a188"}
{"schema":"admiralagent-audit-1","seq":39,"time":"2026-10-01T17:47:28-0400","package_version":"0.1.0","event":"execute_variable","details":{"run_id":"runbd78abd1df3","dataset":"ADAE","variable":"AESEQ","status":"EXECUTED","layers":"assign","note":""},"prev":"f3cdade445b4f16e68f89474bf11e89df1997b8cbf4906507248f0cf9027a188","mode":"sha256","digest":"835a6506f2da75f612771960cff9ac29658c51987fa71c76bdaf13a486844c52"}
{"schema":"admiralagent-audit-1","seq":40,"time":"2026-10-01T17:47:28-0400","package_version":"0.1.0","event":"execute_variable","details":{"run_id":"runbd78abd1df3","dataset":"ADAE","variable":"ASTDT","status":"REVIEW","layers":[],"note":"needs human decision"},"prev":"835a6506f2da75f612771960cff9ac29658c51987fa71c76bdaf13a486844c52","mode":"sha256","digest":"259ccccd06e9b614975dcd88b5c200fa01a3712073685c141901d3d07254342f"}
{"schema":"admiralagent-audit-1","seq":41,"time":"2026-10-01T17:47:28-0400","package_version":"0.1.0","event":"execute_variable","details":{"run_id":"runbd78abd1df3","dataset":"ADAE","variable":"ASTDTF","status":"REVIEW","layers":[],"note":"needs human decision"},"prev":"259ccccd06e9b614975dcd88b5c200fa01a3712073685c141901d3d07254342f","mode":"sha256","digest":"dedfed032cfa088a860533469adec099cc4ded5651423493a524edd817f50a7b"}
{"schema":"admiralagent-audit-1","seq":42,"time":"2026-10-01T17:47:28-0400","package_version":"0.1.0","event":"execute_variable","details":{"run_id":"runbd78abd1df3","dataset":"ADAE","variable":"ASTDY","status":"REVIEW","layers":[],"note":"needs human decision"},"prev":"dedfed032cfa088a860533469adec099cc4ded5651423493a524edd817f50a7b","mode":"sha256","digest":"5f9582fd200fe430b5fa29cceb83285a218d0a03f2f5b1644dc3c230423b8f11"}
{"schema":"admiralagent-audit-1","seq":43,"time":"2026-10-01T17:47:28-0400","package_version":"0.1.0","event":"execute_variable","details":{"run_id":"runbd78abd1df3","dataset":"ADAE","variable":"AENDT","status":"REVIEW","layers":[],"note":"needs human decision"},"prev":"5f9582fd200fe430b5fa29cceb83285a218d0a03f2f5b1644dc3c230423b8f11","mode":"sha256","digest":"0e2fafb73ebca0a82603eb47fa4822e4031eff0fb96d9b49a8f8a953fd326f0f"}
{"schema":"admiralagent-audit-1","seq":44,"time":"2026-10-01T17:47:28-0400","package_version":"0.1.0","event":"execute_variable","details":{"run_id":"runbd78abd1df3","dataset":"ADAE","variable":"AENDY","status":"REVIEW","layers":[],"note":"needs human decision"},"prev":"0e2fafb73ebca0a82603eb47fa4822e4031eff0fb96d9b49a8f8a953fd326f0f","mode":"sha256","digest":"0b6c0473638f13af1c31468430e0b96bab2587bf1eb9b28762fe1fcb70f968d2"}
{"schema":"admiralagent-audit-1","seq":45,"time":"2026-10-01T17:47:28-0400","package_version":"0.1.0","event":"execute_variable","details":{"run_id":"runbd78abd1df3","dataset":"ADAE","variable":"ADURN","status":"REVIEW","layers":[],"note":"needs human decision"},"prev":"0b6c0473638f13af1c31468430e0b96bab2587bf1eb9b28762fe1fcb70f968d2","mode":"sha256","digest":"9269abb68b082a9fba47f19d811f5940b5065c6fb6ce547caac8a91d886721fd"}
{"schema":"admiralagent-audit-1","seq":46,"time":"2026-10-01T17:47:28-0400","package_version":"0.1.0","event":"execute_variable","details":{"run_id":"runbd78abd1df3","dataset":"ADAE","variable":"ADURU","status":"REVIEW","layers":[],"note":"needs human decision"},"prev":"9269abb68b082a9fba47f19d811f5940b5065c6fb6ce547caac8a91d886721fd","mode":"sha256","digest":"4631688d8295043bcd73732992d77b2b730bf1fb04c072c1e7659bd6a3d671e3"}
{"schema":"admiralagent-audit-1","seq":47,"time":"2026-10-01T17:47:28-0400","package_version":"0.1.0","event":"execute_variable","details":{"run_id":"runbd78abd1df3","dataset":"ADAE","variable":"TRTEMFL","status":"REVIEW","layers":[],"note":"needs human decision"},"prev":"4631688d8295043bcd73732992d77b2b730bf1fb04c072c1e7659bd6a3d671e3","mode":"sha256","digest":"b9071e282b6c2d326347bfb29643aec36df3fd5a76aa8014dc472e23eac80d0f"}
{"schema":"admiralagent-audit-1","seq":48,"time":"2026-10-01T17:47:28-0400","package_version":"0.1.0","event":"execute_variable","details":{"run_id":"runbd78abd1df3","dataset":"ADAE","variable":"AOCCFL","status":"REVIEW","layers":[],"note":"needs human decision"},"prev":"b9071e282b6c2d326347bfb29643aec36df3fd5a76aa8014dc472e23eac80d0f","mode":"sha256","digest":"892adcffca4bbb3b7c63a7156a7a6eb614dbbbaa8e4d971ad7c27ed33f74d0e4"}
{"schema":"admiralagent-audit-1","seq":49,"time":"2026-10-01T17:47:28-0400","package_version":"0.1.0","event":"execute_variable","details":{"run_id":"runbd78abd1df3","dataset":"ADAE","variable":"AOCCSFL","status":"REVIEW","layers":[],"note":"needs human decision"},"prev":"892adcffca4bbb3b7c63a7156a7a6eb614dbbbaa8e4d971ad7c27ed33f74d0e4","mode":"sha256","digest":"801ba0b897f40e2f7cc8caa6b12c18e63aa2956e9203de5d48a71e87efc0a246"}
{"schema":"admiralagent-audit-1","seq":50,"time":"2026-10-01T17:47:28-0400","package_version":"0.1.0","event":"execute_variable","details":{"run_id":"runbd78abd1df3","dataset":"ADAE","variable":"AOCCPFL","status":"REVIEW","layers":[],"note":"needs human decision"},"prev":"801ba0b897f40e2f7cc8caa6b12c18e63aa2956e9203de5d48a71e87efc0a246","mode":"sha256","digest":"0fa99a81f1f7fad7fd4a85f50195f71dbbc0f40597d31f607ed68ae89cbf78fc"}
{"schema":"admiralagent-audit-1","seq":51,"time":"2026-10-01T17:47:28-0400","package_version":"0.1.0","event":"execute_variable","details":{"run_id":"runbd78abd1df3","dataset":"ADAE","variable":"AOCC02FL","status":"REVIEW","layers":[],"note":"needs human decision"},"prev":"0fa99a81f1f7fad7fd4a85f50195f71dbbc0f40597d31f607ed68ae89cbf78fc","mode":"sha256","digest":"8c960a6f599f0bbb5b3c0f8661f9ac101ea9c3d47aa2abf1e190e308e03a20b8"}
{"schema":"admiralagent-audit-1","seq":52,"time":"2026-10-01T17:47:28-0400","package_version":"0.1.0","event":"execute_variable","details":{"run_id":"runbd78abd1df3","dataset":"ADAE","variable":"AOCC03FL","status":"REVIEW","layers":[],"note":"needs human decision"},"prev":"8c960a6f599f0bbb5b3c0f8661f9ac101ea9c3d47aa2abf1e190e308e03a20b8","mode":"sha256","digest":"6d65fc98e08ccb52645c2acb461ac1ca9e3f28375489fbb0b55f824d17de64cb"}
{"schema":"admiralagent-audit-1","seq":53,"time":"2026-10-01T17:47:28-0400","package_version":"0.1.0","event":"execute_variable","details":{"run_id":"runbd78abd1df3","dataset":"ADAE","variable":"AOCC04FL","status":"REVIEW","layers":[],"note":"needs human decision"},"prev":"6d65fc98e08ccb52645c2acb461ac1ca9e3f28375489fbb0b55f824d17de64cb","mode":"sha256","digest":"996663ec91bc6e5b76d4a5406a1c63b32770fee8a6df852c761f24f8a21d8b15"}
{"schema":"admiralagent-audit-1","seq":54,"time":"2026-10-01T17:47:28-0400","package_version":"0.1.0","event":"execute_variable","details":{"run_id":"runbd78abd1df3","dataset":"ADAE","variable":"CQ01NAM","status":"REVIEW","layers":[],"note":"needs human decision"},"prev":"996663ec91bc6e5b76d4a5406a1c63b32770fee8a6df852c761f24f8a21d8b15","mode":"sha256","digest":"f81e79a058ec1036ec2130d57179c759ba00676a14cfed5195c724cf16618b84"}
{"schema":"admiralagent-audit-1","seq":55,"time":"2026-10-01T17:47:28-0400","package_version":"0.1.0","event":"execute_variable","details":{"run_id":"runbd78abd1df3","dataset":"ADAE","variable":"AOCC01FL","status":"REVIEW","layers":[],"note":"needs human decision"},"prev":"f81e79a058ec1036ec2130d57179c759ba00676a14cfed5195c724cf16618b84","mode":"sha256","digest":"456fe0b6a9d7c614bfaae5e3e1d3f7d01364cab84e30091a6c43118715379b62"}
{"schema":"admiralagent-audit-1","seq":56,"time":"2026-10-01T17:47:28-0400","package_version":"0.1.0","event":"run_manifest","details":{"manifest_schema":"admiralagent-manifest-1","run_id":"runbd78abd1df3","r_version":"R version 4.6.0 (2026-04-24 ucrt)","r_release":"4.6.0","platform":"x86_64-w64-mingw32","packages":{"admiral":"1.5.0.9011","metatools":"0.3.0","dplyr":"1.2.1","rlang":"1.3.0"},"package_version":"0.1.0","package_version_source":"fallback","package_version_reliable":false,"operator":"JaimeYan","operator_source":"session","source_data":[{"source":"base","rows":1191,"cols":35,"columns":["STUDYID","DOMAIN","USUBJID","AESEQ","AESPID","AETERM","AELLT","AELLTCD","AEDECOD","AEPTCD","AEHLT","AEHLTCD","AEHLGT","AEHLGTCD","AEBODSYS","AEBDSYCD","AESOC","AESOCCD","AESEV","AESER","AEACN","AEREL","AEOUT","AESCAN","AESCONG","AESDISAB","AESDTH","AESHOSP","AESLIFE","AESOD","AEDTC","AESTDTC","AEENDTC","AESTDY","AEENDY"],"digest":"xxhash64:1ac146b719828a95"},{"source":"dm","rows":306,"cols":25,"columns":["STUDYID","DOMAIN","USUBJID","SUBJID","RFSTDTC","RFENDTC","RFXSTDTC","RFXENDTC","RFICDTC","RFPENDTC","DTHDTC","DTHFL","SITEID","AGE","AGEU","SEX","RACE","ETHNIC","ARMCD","ARM","ACTARMCD","ACTARM","COUNTRY","DMDTC","DMDY"],"digest":"xxhash64:6aeb909cce25d84b"},{"source":"ex","rows":591,"cols":17,"columns":["STUDYID","DOMAIN","USUBJID","EXSEQ","EXTRT","EXDOSE","EXDOSU","EXDOSFRM","EXDOSFRQ","EXROUTE","VISITNUM","VISIT","VISITDY","EXSTDTC","EXENDTC","EXSTDY","EXENDY"],"digest":"xxhash64:011a6b5c369aa767"},{"source":"vs","rows":29643,"cols":26,"columns":["STUDYID","DOMAIN","USUBJID","VSSEQ","VSTESTCD","VSTEST","VSPOS","VSORRES","VSORRESU","VSSTRESC","VSSTRESN","VSSTRESU","VSSTAT","VSLOC","VSBLFL","VISITNUM","VISIT","VISITDY","VSDTC","VSDY","VSTPT","VSTPTNUM","VSELTM","VSTPTREF","AVAL","PARAMCD"],"digest":"xxhash64:64dad7bc779481b8"},{"source":"ae","rows":1191,"cols":35,"columns":["STUDYID","DOMAIN","USUBJID","AESEQ","AESPID","AETERM","AELLT","AELLTCD","AEDECOD","AEPTCD","AEHLT","AEHLTCD","AEHLGT","AEHLGTCD","AEBODSYS","AEBDSYCD","AESOC","AESOCCD","AESEV","AESER","AEACN","AEREL","AEOUT","AESCAN","AESCONG","AESDISAB","AESDTH","AESHOSP","AESLIFE","AESOD","AEDTC","AESTDTC","AEENDTC","AESTDY","AEENDY"],"digest":"xxhash64:1ac146b719828a95"},{"source":"sv","rows":3559,"cols":8,"columns":["STUDYID","DOMAIN","USUBJID","VISITNUM","VISIT","VISITDY","SVSTDTC","SVENDTC"],"digest":"xxhash64:b84b26051ef5ae3d"},{"source":"ds","rows":596,"cols":13,"columns":["STUDYID","DOMAIN","USUBJID","DSSEQ","DSSPID","DSTERM","DSDECOD","DSCAT","VISITNUM","VISIT","DSDTC","DSSTDTC","DSSTDY"],"digest":"xxhash64:6ecf56d5f8d6e3d6"},{"source":"sc","rows":254,"cols":14,"columns":["STUDYID","DOMAIN","USUBJID","SCSEQ","SCTESTCD","SCTEST","SCCAT","SCORRES","SCORRESU","SCSTRESC","SCSTRESN","SCSTRESU","SCDTC","SCDY"],"digest":"xxhash64:87df85a85d620821"},{"source":"mh","rows":1818,"cols":19,"columns":["STUDYID","DOMAIN","USUBJID","MHSEQ","MHSPID","MHTERM","MHLLT","MHDECOD","MHHLT","MHHLGT","MHCAT","MHBODSYS","MHSEV","VISITNUM","VISIT","VISITDY","MHDTC","MHSTDTC","MHDY"],"digest":"xxhash64:c186fa80a06f46e2"},{"source":"qs","rows":121749,"cols":20,"columns":["STUDYID","DOMAIN","USUBJID","QSSEQ","QSTESTCD","QSTEST","QSCAT","QSSCAT","QSORRES","QSORRESU","QSSTRESC","QSSTRESN","QSSTRESU","QSBLFL","QSDRVFL","VISITNUM","VISIT","VISITDY","QSDTC","QSDY"],"digest":"xxhash64:9e99f89f1f2e4101"},{"source":"lb","rows":59580,"cols":25,"columns":["STUDYID","DOMAIN","USUBJID","LBSEQ","LBTESTCD","LBTEST","LBCAT","LBORRES","LBORRESU","LBORNRLO","LBORNRHI","LBSTRESC","LBSTRESN","LBSTRESU","LBSTNRLO","LBSTNRHI","LBNRIND","LBBLFL","VISITNUM","VISIT","VISITDY","LBDTC","LBDY","AVAL","PARAMCD"],"digest":"xxhash64:b534820922fc3e6d"},{"source":"adsl","rows":306,"cols":29,"columns":["STUDYID","DOMAIN","USUBJID","SUBJID","RFSTDTC","RFENDTC","RFXSTDTC","RFXENDTC","RFICDTC","RFPENDTC","DTHDTC","DTHFL","SITEID","AGE","AGEU","SEX","RACE","ETHNIC","ARMCD","ARM","ACTARMCD","ACTARM","COUNTRY","DMDTC","DMDY","TRT01P","TRT01A","RFENDT","RFENDTF"],"digest":"xxhash64:534c632f6ae3b8c3"},{"source":"mc","rows":null,"cols":null,"columns":null,"digest":"xxhash64:358636f82552e993"}],"source_data_digest":"sources:9d9cf323eb067f37","ir_hash":"c978bbbd","backend":null,"model":null,"seed":null,"temperature":null,"prompt_digest":null,"gate_enforced":true,"gate_id":null},"prev":"456fe0b6a9d7c614bfaae5e3e1d3f7d01364cab84e30091a6c43118715379b62","mode":"sha256","digest":"404730ef235622102842d99550576bdac7774bcb52315b767900752bd648bab6"}
