{"schema":"admiralagent-audit-1","seq":1,"time":"2026-10-01T17:47:31-0400","package_version":"0.1.0","event":"execute_variable","details":{"run_id":"runbd783b3741dd","dataset":"ADLBC","variable":"STUDYID","status":"EXECUTED","layers":"assign","note":""},"prev":"0000000000000000000000000000000000000000000000000000000000000000","mode":"sha256","digest":"d869731d050a63ba7fb0562616ef71e619ef825d554cb57ebfa5c45ef7f49be7"}
{"schema":"admiralagent-audit-1","seq":2,"time":"2026-10-01T17:47:31-0400","package_version":"0.1.0","event":"execute_variable","details":{"run_id":"runbd783b3741dd","dataset":"ADLBC","variable":"SUBJID","status":"ERROR","layers":"assign","note":"column 'SUBJID' is missing from source dataset 'ADLBC'"},"prev":"d869731d050a63ba7fb0562616ef71e619ef825d554cb57ebfa5c45ef7f49be7","mode":"sha256","digest":"da0fe214a704bbc34ce3ce5affbcb96acae56900c5c6c09f3062d49634038b25"}
{"schema":"admiralagent-audit-1","seq":3,"time":"2026-10-01T17:47:31-0400","package_version":"0.1.0","event":"execute_variable","details":{"run_id":"runbd783b3741dd","dataset":"ADLBC","variable":"USUBJID","status":"EXECUTED","layers":"assign","note":""},"prev":"da0fe214a704bbc34ce3ce5affbcb96acae56900c5c6c09f3062d49634038b25","mode":"sha256","digest":"b5454ef7dd7ac3b984b6600f5b647983deab46cd61e81fcfead86963da32cd5c"}
{"schema":"admiralagent-audit-1","seq":4,"time":"2026-10-01T17:47:31-0400","package_version":"0.1.0","event":"execute_variable","details":{"run_id":"runbd783b3741dd","dataset":"ADLBC","variable":"TRTP","status":"ERROR","layers":"assign","note":"column 'TRT01P' is missing from source dataset 'ADLBC'"},"prev":"b5454ef7dd7ac3b984b6600f5b647983deab46cd61e81fcfead86963da32cd5c","mode":"sha256","digest":"b63749ba934ea38ee18191e8fa519dacbd69be6dc3457a4efc20d180fabbfef1"}
{"schema":"admiralagent-audit-1","seq":5,"time":"2026-10-01T17:47:31-0400","package_version":"0.1.0","event":"execute_variable","details":{"run_id":"runbd783b3741dd","dataset":"ADLBC","variable":"TRTPN","status":"ERROR","layers":"assign","note":"column 'TRT01PN' is missing from source dataset 'ADLBC'"},"prev":"b63749ba934ea38ee18191e8fa519dacbd69be6dc3457a4efc20d180fabbfef1","mode":"sha256","digest":"3cd2e533e1e96e9fc0735495006d1563ef3174995fefa485679686988188f040"}
{"schema":"admiralagent-audit-1","seq":6,"time":"2026-10-01T17:47:31-0400","package_version":"0.1.0","event":"execute_variable","details":{"run_id":"runbd783b3741dd","dataset":"ADLBC","variable":"TRTA","status":"ERROR","layers":"assign","note":"column 'TRT01A' is missing from source dataset 'ADLBC'"},"prev":"3cd2e533e1e96e9fc0735495006d1563ef3174995fefa485679686988188f040","mode":"sha256","digest":"db54b7262a1435c1072058e85c100d2e128664698cbdcc319a635fa6d4f1de9a"}
{"schema":"admiralagent-audit-1","seq":7,"time":"2026-10-01T17:47:31-0400","package_version":"0.1.0","event":"execute_variable","details":{"run_id":"runbd783b3741dd","dataset":"ADLBC","variable":"TRTAN","status":"ERROR","layers":"assign","note":"column 'TRT01AN' is missing from source dataset 'ADLBC'"},"prev":"db54b7262a1435c1072058e85c100d2e128664698cbdcc319a635fa6d4f1de9a","mode":"sha256","digest":"fb549b5444ec108ad42f4f7bc5f2a49fd29f09ecfb193a10969225a97badab81"}
{"schema":"admiralagent-audit-1","seq":8,"time":"2026-10-01T17:47:31-0400","package_version":"0.1.0","event":"execute_variable","details":{"run_id":"runbd783b3741dd","dataset":"ADLBC","variable":"TRTSDT","status":"ERROR","layers":"assign","note":"column 'TRTSDT' is missing from source dataset 'ADLBC'"},"prev":"fb549b5444ec108ad42f4f7bc5f2a49fd29f09ecfb193a10969225a97badab81","mode":"sha256","digest":"71c5185d725f16a9c45fbb9798b60ceb5e4c7d1dbe1c9eea38cc58cf8cf0c058"}
{"schema":"admiralagent-audit-1","seq":9,"time":"2026-10-01T17:47:31-0400","package_version":"0.1.0","event":"execute_variable","details":{"run_id":"runbd783b3741dd","dataset":"ADLBC","variable":"TRTEDT","status":"ERROR","layers":"assign","note":"column 'TRTEDT' is missing from source dataset 'ADLBC'"},"prev":"71c5185d725f16a9c45fbb9798b60ceb5e4c7d1dbe1c9eea38cc58cf8cf0c058","mode":"sha256","digest":"c45fee422d522e94ab48c453a8ea3ca94828c8e8e6eff6355b13cbb0e4fef918"}
{"schema":"admiralagent-audit-1","seq":10,"time":"2026-10-01T17:47:31-0400","package_version":"0.1.0","event":"execute_variable","details":{"run_id":"runbd783b3741dd","dataset":"ADLBC","variable":"AGE","status":"ERROR","layers":"assign","note":"column 'AGE' is missing from source dataset 'ADLBC'"},"prev":"c45fee422d522e94ab48c453a8ea3ca94828c8e8e6eff6355b13cbb0e4fef918","mode":"sha256","digest":"1f72f7fe06e405ea08d5bb7cbd8cb4e5001e1c78ff26dbd85e1c4caea668c4e6"}
{"schema":"admiralagent-audit-1","seq":11,"time":"2026-10-01T17:47:31-0400","package_version":"0.1.0","event":"execute_variable","details":{"run_id":"runbd783b3741dd","dataset":"ADLBC","variable":"AGEGR1","status":"ERROR","layers":"assign","note":"column 'AGEGR1' is missing from source dataset 'ADLBC'"},"prev":"1f72f7fe06e405ea08d5bb7cbd8cb4e5001e1c78ff26dbd85e1c4caea668c4e6","mode":"sha256","digest":"4a81f68681c52ccae2f834c170a3965725de13dd1f44860809c013e09e1e579c"}
{"schema":"admiralagent-audit-1","seq":12,"time":"2026-10-01T17:47:31-0400","package_version":"0.1.0","event":"execute_variable","details":{"run_id":"runbd783b3741dd","dataset":"ADLBC","variable":"AGEGR1N","status":"ERROR","layers":"assign","note":"column 'AGEGR1N' is missing from source dataset 'ADLBC'"},"prev":"4a81f68681c52ccae2f834c170a3965725de13dd1f44860809c013e09e1e579c","mode":"sha256","digest":"af1f37382f7d7855c3f25575e097336c30fe6c8d821cdd08d05c132a6ffdd0fe"}
{"schema":"admiralagent-audit-1","seq":13,"time":"2026-10-01T17:47:32-0400","package_version":"0.1.0","event":"execute_variable","details":{"run_id":"runbd783b3741dd","dataset":"ADLBC","variable":"RACE","status":"ERROR","layers":"assign","note":"column 'RACE' is missing from source dataset 'ADLBC'"},"prev":"af1f37382f7d7855c3f25575e097336c30fe6c8d821cdd08d05c132a6ffdd0fe","mode":"sha256","digest":"6aaacd52f51d0ed826e4ddec503ca6039212e6b9ba8507009dec2df5eb143a13"}
{"schema":"admiralagent-audit-1","seq":14,"time":"2026-10-01T17:47:32-0400","package_version":"0.1.0","event":"execute_variable","details":{"run_id":"runbd783b3741dd","dataset":"ADLBC","variable":"RACEN","status":"ERROR","layers":"assign","note":"column 'RACEN' is missing from source dataset 'ADLBC'"},"prev":"6aaacd52f51d0ed826e4ddec503ca6039212e6b9ba8507009dec2df5eb143a13","mode":"sha256","digest":"56f48652e25a1f83a5d6da7db77bb934c88ee374b9c2e91460b6ec1d0c438f9b"}
{"schema":"admiralagent-audit-1","seq":15,"time":"2026-10-01T17:47:32-0400","package_version":"0.1.0","event":"execute_variable","details":{"run_id":"runbd783b3741dd","dataset":"ADLBC","variable":"SEX","status":"ERROR","layers":"assign","note":"column 'SEX' is missing from source dataset 'ADLBC'"},"prev":"56f48652e25a1f83a5d6da7db77bb934c88ee374b9c2e91460b6ec1d0c438f9b","mode":"sha256","digest":"6efcc45d037fc9caaa3427a8c720f6db7fa2d7ebc9388216ade7b60216303325"}
{"schema":"admiralagent-audit-1","seq":16,"time":"2026-10-01T17:47:32-0400","package_version":"0.1.0","event":"execute_variable","details":{"run_id":"runbd783b3741dd","dataset":"ADLBC","variable":"COMP24FL","status":"ERROR","layers":"assign","note":"column 'COM01P24FL' is missing from source dataset 'ADLBC'"},"prev":"6efcc45d037fc9caaa3427a8c720f6db7fa2d7ebc9388216ade7b60216303325","mode":"sha256","digest":"bacb91ee407a38f51d9d384a701b76287fe93a4fcc1898a1cd56257fba52807d"}
{"schema":"admiralagent-audit-1","seq":17,"time":"2026-10-01T17:47:32-0400","package_version":"0.1.0","event":"execute_variable","details":{"run_id":"runbd783b3741dd","dataset":"ADLBC","variable":"DSRAEFL","status":"ERROR","layers":"assign","note":"column 'DSR01AEFL' is missing from source dataset 'ADLBC'"},"prev":"bacb91ee407a38f51d9d384a701b76287fe93a4fcc1898a1cd56257fba52807d","mode":"sha256","digest":"30a59e4d50de54ca0511193c740bf0f9267faeae859b3f986347eb40a0d4662d"}
{"schema":"admiralagent-audit-1","seq":18,"time":"2026-10-01T17:47:32-0400","package_version":"0.1.0","event":"execute_variable","details":{"run_id":"runbd783b3741dd","dataset":"ADLBC","variable":"SAFFL","status":"ERROR","layers":"assign","note":"column 'SAF01FL' is missing from source dataset 'ADLBC'"},"prev":"30a59e4d50de54ca0511193c740bf0f9267faeae859b3f986347eb40a0d4662d","mode":"sha256","digest":"8f42bd2b408f70e0350af93f55f593e5254075d89aa9f3b289c51cffdd171d3c"}
{"schema":"admiralagent-audit-1","seq":19,"time":"2026-10-01T17:47:32-0400","package_version":"0.1.0","event":"execute_variable","details":{"run_id":"runbd783b3741dd","dataset":"ADLBC","variable":"ADY","status":"EXECUTED","layers":"assign","note":""},"prev":"8f42bd2b408f70e0350af93f55f593e5254075d89aa9f3b289c51cffdd171d3c","mode":"sha256","digest":"a78872f280d222b4fffe0fc4ddaee5f96f46603609ca58e9d3e71b889c0c166f"}
{"schema":"admiralagent-audit-1","seq":20,"time":"2026-10-01T17:47:32-0400","package_version":"0.1.0","event":"execute_variable","details":{"run_id":"runbd783b3741dd","dataset":"ADLBC","variable":"ADT","status":"EXECUTED","layers":"assign","note":""},"prev":"a78872f280d222b4fffe0fc4ddaee5f96f46603609ca58e9d3e71b889c0c166f","mode":"sha256","digest":"b0a5568193472cbc317d4a3ed35eeed4e7174a9663e2cf2a47cdd35c0b7d8f4e"}
{"schema":"admiralagent-audit-1","seq":21,"time":"2026-10-01T17:47:32-0400","package_version":"0.1.0","event":"execute_variable","details":{"run_id":"runbd783b3741dd","dataset":"ADLBC","variable":"VISIT","status":"EXECUTED","layers":"assign","note":""},"prev":"b0a5568193472cbc317d4a3ed35eeed4e7174a9663e2cf2a47cdd35c0b7d8f4e","mode":"sha256","digest":"41dec91d44e14565d4b76d56fbded50a8f744b5fde3719fc6a1c84486efa7689"}
{"schema":"admiralagent-audit-1","seq":22,"time":"2026-10-01T17:47:32-0400","package_version":"0.1.0","event":"execute_variable","details":{"run_id":"runbd783b3741dd","dataset":"ADLBC","variable":"VISITNUM","status":"EXECUTED","layers":"assign","note":""},"prev":"41dec91d44e14565d4b76d56fbded50a8f744b5fde3719fc6a1c84486efa7689","mode":"sha256","digest":"21d4d2aed1ac695325b43dad02689389ab9357b0e5b0561c91e3d1c760103a56"}
{"schema":"admiralagent-audit-1","seq":23,"time":"2026-10-01T17:47:32-0400","package_version":"0.1.0","event":"execute_variable","details":{"run_id":"runbd783b3741dd","dataset":"ADLBC","variable":"PARAMCD","status":"ERROR","layers":"assign","note":"column 'TESTCD' is missing from source dataset 'ADLBC'"},"prev":"21d4d2aed1ac695325b43dad02689389ab9357b0e5b0561c91e3d1c760103a56","mode":"sha256","digest":"4dc049c35b91a3f82965ade9f4fbca2d5d0fb1ff689ac797dba6472ebd8dfc7b"}
{"schema":"admiralagent-audit-1","seq":24,"time":"2026-10-01T17:47:32-0400","package_version":"0.1.0","event":"execute_variable","details":{"run_id":"runbd783b3741dd","dataset":"ADLBC","variable":"BASE","status":"EXECUTED","layers":"assign","note":""},"prev":"4dc049c35b91a3f82965ade9f4fbca2d5d0fb1ff689ac797dba6472ebd8dfc7b","mode":"sha256","digest":"9062f810826f3ac784e5edbeba3ac074c2800805c85e2fe17c6b87bfde0626a9"}
{"schema":"admiralagent-audit-1","seq":25,"time":"2026-10-01T17:47:32-0400","package_version":"0.1.0","event":"execute_variable","details":{"run_id":"runbd783b3741dd","dataset":"ADLBC","variable":"A1LO","status":"EXECUTED","layers":"assign","note":""},"prev":"9062f810826f3ac784e5edbeba3ac074c2800805c85e2fe17c6b87bfde0626a9","mode":"sha256","digest":"c5bcfbef08f969c84c6421608ee0673315a8c220bed1b3185779fa1f5e6c5376"}
{"schema":"admiralagent-audit-1","seq":26,"time":"2026-10-01T17:47:32-0400","package_version":"0.1.0","event":"execute_variable","details":{"run_id":"runbd783b3741dd","dataset":"ADLBC","variable":"A1HI","status":"EXECUTED","layers":"assign","note":""},"prev":"c5bcfbef08f969c84c6421608ee0673315a8c220bed1b3185779fa1f5e6c5376","mode":"sha256","digest":"3a5e6c3f369492122b1716d43ed848d4da375a13f4c6f519fd723c237129389d"}
{"schema":"admiralagent-audit-1","seq":27,"time":"2026-10-01T17:47:32-0400","package_version":"0.1.0","event":"execute_variable","details":{"run_id":"runbd783b3741dd","dataset":"ADLBC","variable":"ABLFL","status":"EXECUTED","layers":"assign","note":""},"prev":"3a5e6c3f369492122b1716d43ed848d4da375a13f4c6f519fd723c237129389d","mode":"sha256","digest":"b5d7d6b7cdc391cf0be3442353068b72b5f33eb18246196aa810fdbb7006f2da"}
{"schema":"admiralagent-audit-1","seq":28,"time":"2026-10-01T17:47:32-0400","package_version":"0.1.0","event":"execute_variable","details":{"run_id":"runbd783b3741dd","dataset":"ADLBC","variable":"LBSEQ","status":"EXECUTED","layers":"assign","note":""},"prev":"b5d7d6b7cdc391cf0be3442353068b72b5f33eb18246196aa810fdbb7006f2da","mode":"sha256","digest":"768bffa3c81a7a3327f00b96d0dbbcf7f86275b515cdc296e960da317e53a239"}
{"schema":"admiralagent-audit-1","seq":29,"time":"2026-10-01T17:47:32-0400","package_version":"0.1.0","event":"execute_variable","details":{"run_id":"runbd783b3741dd","dataset":"ADLBC","variable":"LBNRIND","status":"EXECUTED","layers":"assign","note":""},"prev":"768bffa3c81a7a3327f00b96d0dbbcf7f86275b515cdc296e960da317e53a239","mode":"sha256","digest":"ba862b66ff7b1eae2f3d258cdcca84d65354a8051653ac2ce47be6cbfb8d940b"}
{"schema":"admiralagent-audit-1","seq":30,"time":"2026-10-01T17:47:32-0400","package_version":"0.1.0","event":"execute_variable","details":{"run_id":"runbd783b3741dd","dataset":"ADLBC","variable":"LBSTRESN","status":"EXECUTED","layers":"assign","note":""},"prev":"ba862b66ff7b1eae2f3d258cdcca84d65354a8051653ac2ce47be6cbfb8d940b","mode":"sha256","digest":"b2978e2144aa1adcd41dc617de42f7c67aa062121b529598ab869d9c32a0f70e"}
{"schema":"admiralagent-audit-1","seq":31,"time":"2026-10-01T17:47:32-0400","package_version":"0.1.0","event":"execute_variable","details":{"run_id":"runbd783b3741dd","dataset":"ADLBC","variable":"AVAL","status":"EXECUTED","layers":"assign","note":""},"prev":"b2978e2144aa1adcd41dc617de42f7c67aa062121b529598ab869d9c32a0f70e","mode":"sha256","digest":"21ff1545fed9664bf2aee87c1fa9c6a77ed960a6761b88cef7dc9fdd0d2578a4"}
{"schema":"admiralagent-audit-1","seq":32,"time":"2026-10-01T17:47:32-0400","package_version":"0.1.0","event":"execute_variable","details":{"run_id":"runbd783b3741dd","dataset":"ADLBC","variable":"CHG","status":"EXECUTED","layers":"compute_var","note":""},"prev":"21ff1545fed9664bf2aee87c1fa9c6a77ed960a6761b88cef7dc9fdd0d2578a4","mode":"sha256","digest":"ec3304b608ef0564be050620734431c3b5f53149fd4d03ce471b32e71480a732"}
{"schema":"admiralagent-audit-1","seq":33,"time":"2026-10-01T17:47:32-0400","package_version":"0.1.0","event":"execute_variable","details":{"run_id":"runbd783b3741dd","dataset":"ADLBC","variable":"AVISIT","status":"REVIEW","layers":[],"note":"needs human decision"},"prev":"ec3304b608ef0564be050620734431c3b5f53149fd4d03ce471b32e71480a732","mode":"sha256","digest":"b1cafad7316eed1512f6ae0c1b78b9f65ec62f1d016a47dea91455d95fde1384"}
{"schema":"admiralagent-audit-1","seq":34,"time":"2026-10-01T17:47:32-0400","package_version":"0.1.0","event":"execute_variable","details":{"run_id":"runbd783b3741dd","dataset":"ADLBC","variable":"AVISITN","status":"REVIEW","layers":[],"note":"needs human decision"},"prev":"b1cafad7316eed1512f6ae0c1b78b9f65ec62f1d016a47dea91455d95fde1384","mode":"sha256","digest":"3ca5d306d5b4c01987161425c91d9e24824d64a55c342d91a1b796ac9ead3525"}
{"schema":"admiralagent-audit-1","seq":35,"time":"2026-10-01T17:47:32-0400","package_version":"0.1.0","event":"execute_variable","details":{"run_id":"runbd783b3741dd","dataset":"ADLBC","variable":"PARAM","status":"REVIEW","layers":[],"note":"needs human decision"},"prev":"3ca5d306d5b4c01987161425c91d9e24824d64a55c342d91a1b796ac9ead3525","mode":"sha256","digest":"296baa9634561f5241f5514e299acfeb8b8b88ff7ba3a86be8b628cd7d4ac1cb"}
{"schema":"admiralagent-audit-1","seq":36,"time":"2026-10-01T17:47:32-0400","package_version":"0.1.0","event":"execute_variable","details":{"run_id":"runbd783b3741dd","dataset":"ADLBC","variable":"PARAMN","status":"REVIEW","layers":[],"note":"needs human decision"},"prev":"296baa9634561f5241f5514e299acfeb8b8b88ff7ba3a86be8b628cd7d4ac1cb","mode":"sha256","digest":"69f3fc1ca6732347cca3a891dbb6c7a3a462d34a6e363801388c38f5d4d61b0f"}
{"schema":"admiralagent-audit-1","seq":37,"time":"2026-10-01T17:47:32-0400","package_version":"0.1.0","event":"execute_variable","details":{"run_id":"runbd783b3741dd","dataset":"ADLBC","variable":"PARCAT1","status":"REVIEW","layers":[],"note":"needs human decision"},"prev":"69f3fc1ca6732347cca3a891dbb6c7a3a462d34a6e363801388c38f5d4d61b0f","mode":"sha256","digest":"a63f250ab499fc6808595bec432fc68427ccdd82a127aa06038c0dc35ee825b8"}
{"schema":"admiralagent-audit-1","seq":38,"time":"2026-10-01T17:47:32-0400","package_version":"0.1.0","event":"execute_variable","details":{"run_id":"runbd783b3741dd","dataset":"ADLBC","variable":"R2A1LO","status":"REVIEW","layers":[],"note":"needs human decision"},"prev":"a63f250ab499fc6808595bec432fc68427ccdd82a127aa06038c0dc35ee825b8","mode":"sha256","digest":"0141e28b37dfce3eb8ebecab1797ed92c5ddb5db47c42bf63736a59c74650a8d"}
{"schema":"admiralagent-audit-1","seq":39,"time":"2026-10-01T17:47:32-0400","package_version":"0.1.0","event":"execute_variable","details":{"run_id":"runbd783b3741dd","dataset":"ADLBC","variable":"R2A1HI","status":"REVIEW","layers":[],"note":"needs human decision"},"prev":"0141e28b37dfce3eb8ebecab1797ed92c5ddb5db47c42bf63736a59c74650a8d","mode":"sha256","digest":"96e5ff6924eb00427907e3c85e95b7d987d510f62e446fd8fb8ab58b46fdbf1e"}
{"schema":"admiralagent-audit-1","seq":40,"time":"2026-10-01T17:47:32-0400","package_version":"0.1.0","event":"execute_variable","details":{"run_id":"runbd783b3741dd","dataset":"ADLBC","variable":"BR2A1LO","status":"REVIEW","layers":[],"note":"needs human decision"},"prev":"96e5ff6924eb00427907e3c85e95b7d987d510f62e446fd8fb8ab58b46fdbf1e","mode":"sha256","digest":"3b68098149b1a9de9081d40bbd1835bef7cce8dea739c3f2b724042dad28111f"}
{"schema":"admiralagent-audit-1","seq":41,"time":"2026-10-01T17:47:32-0400","package_version":"0.1.0","event":"execute_variable","details":{"run_id":"runbd783b3741dd","dataset":"ADLBC","variable":"BR2A1HI","status":"REVIEW","layers":[],"note":"needs human decision"},"prev":"3b68098149b1a9de9081d40bbd1835bef7cce8dea739c3f2b724042dad28111f","mode":"sha256","digest":"65d0bfe8af37b24e869a05e8d2af4f817b0d35d3ff6105808d32498acec8f018"}
{"schema":"admiralagent-audit-1","seq":42,"time":"2026-10-01T17:47:32-0400","package_version":"0.1.0","event":"execute_variable","details":{"run_id":"runbd783b3741dd","dataset":"ADLBC","variable":"ANL01FL","status":"REVIEW","layers":[],"note":"needs human decision"},"prev":"65d0bfe8af37b24e869a05e8d2af4f817b0d35d3ff6105808d32498acec8f018","mode":"sha256","digest":"034eeb9e785aa8314debb7226339409dd274d0e48b9b16abba23b5131ec3ad10"}
{"schema":"admiralagent-audit-1","seq":43,"time":"2026-10-01T17:47:32-0400","package_version":"0.1.0","event":"execute_variable","details":{"run_id":"runbd783b3741dd","dataset":"ADLBC","variable":"ALBTRVAL","status":"REVIEW","layers":[],"note":"needs human decision"},"prev":"034eeb9e785aa8314debb7226339409dd274d0e48b9b16abba23b5131ec3ad10","mode":"sha256","digest":"16534e45b347272de8c15d95ff119226d0fad05e98c4b9e205e8b2748cf52216"}
{"schema":"admiralagent-audit-1","seq":44,"time":"2026-10-01T17:47:32-0400","package_version":"0.1.0","event":"execute_variable","details":{"run_id":"runbd783b3741dd","dataset":"ADLBC","variable":"ANRIND","status":"REVIEW","layers":[],"note":"needs human decision"},"prev":"16534e45b347272de8c15d95ff119226d0fad05e98c4b9e205e8b2748cf52216","mode":"sha256","digest":"696773b4cade5e51cf216ec6680f79cdae702d4b85961ecda49214083a0f32f0"}
{"schema":"admiralagent-audit-1","seq":45,"time":"2026-10-01T17:47:32-0400","package_version":"0.1.0","event":"execute_variable","details":{"run_id":"runbd783b3741dd","dataset":"ADLBC","variable":"BNRIND","status":"REVIEW","layers":[],"note":"needs human decision"},"prev":"696773b4cade5e51cf216ec6680f79cdae702d4b85961ecda49214083a0f32f0","mode":"sha256","digest":"b6327625db75b3ef17e9471d6d71736dc7db225d66115be91e3f90d06d9ba6f9"}
{"schema":"admiralagent-audit-1","seq":46,"time":"2026-10-01T17:47:32-0400","package_version":"0.1.0","event":"execute_variable","details":{"run_id":"runbd783b3741dd","dataset":"ADLBC","variable":"AENTMTFL","status":"REVIEW","layers":[],"note":"needs human decision"},"prev":"b6327625db75b3ef17e9471d6d71736dc7db225d66115be91e3f90d06d9ba6f9","mode":"sha256","digest":"414ff5e80a2e4048fbe737762244a8922e38dabead72be183b026fc4a613909b"}
{"schema":"admiralagent-audit-1","seq":47,"time":"2026-10-01T17:47:32-0400","package_version":"0.1.0","event":"run_manifest","details":{"manifest_schema":"admiralagent-manifest-1","run_id":"runbd783b3741dd","r_version":"R version 4.6.0 (2026-04-24 ucrt)","r_release":"4.6.0","platform":"x86_64-w64-mingw32","packages":{"admiral":"1.5.0.9011","metatools":"0.3.0","dplyr":"1.2.1","rlang":"1.3.0"},"package_version":"0.1.0","package_version_source":"fallback","package_version_reliable":false,"operator":"JaimeYan","operator_source":"session","source_data":[{"source":"base","rows":59580,"cols":25,"columns":["STUDYID","DOMAIN","USUBJID","LBSEQ","LBTESTCD","LBTEST","LBCAT","LBORRES","LBORRESU","LBORNRLO","LBORNRHI","LBSTRESC","LBSTRESN","LBSTRESU","LBSTNRLO","LBSTNRHI","LBNRIND","LBBLFL","VISITNUM","VISIT","VISITDY","LBDTC","LBDY","AVAL","PARAMCD"],"digest":"xxhash64:b534820922fc3e6d"},{"source":"dm","rows":306,"cols":25,"columns":["STUDYID","DOMAIN","USUBJID","SUBJID","RFSTDTC","RFENDTC","RFXSTDTC","RFXENDTC","RFICDTC","RFPENDTC","DTHDTC","DTHFL","SITEID","AGE","AGEU","SEX","RACE","ETHNIC","ARMCD","ARM","ACTARMCD","ACTARM","COUNTRY","DMDTC","DMDY"],"digest":"xxhash64:6aeb909cce25d84b"},{"source":"ex","rows":591,"cols":17,"columns":["STUDYID","DOMAIN","USUBJID","EXSEQ","EXTRT","EXDOSE","EXDOSU","EXDOSFRM","EXDOSFRQ","EXROUTE","VISITNUM","VISIT","VISITDY","EXSTDTC","EXENDTC","EXSTDY","EXENDY"],"digest":"xxhash64:011a6b5c369aa767"},{"source":"vs","rows":29643,"cols":26,"columns":["STUDYID","DOMAIN","USUBJID","VSSEQ","VSTESTCD","VSTEST","VSPOS","VSORRES","VSORRESU","VSSTRESC","VSSTRESN","VSSTRESU","VSSTAT","VSLOC","VSBLFL","VISITNUM","VISIT","VISITDY","VSDTC","VSDY","VSTPT","VSTPTNUM","VSELTM","VSTPTREF","AVAL","PARAMCD"],"digest":"xxhash64:64dad7bc779481b8"},{"source":"ae","rows":1191,"cols":35,"columns":["STUDYID","DOMAIN","USUBJID","AESEQ","AESPID","AETERM","AELLT","AELLTCD","AEDECOD","AEPTCD","AEHLT","AEHLTCD","AEHLGT","AEHLGTCD","AEBODSYS","AEBDSYCD","AESOC","AESOCCD","AESEV","AESER","AEACN","AEREL","AEOUT","AESCAN","AESCONG","AESDISAB","AESDTH","AESHOSP","AESLIFE","AESOD","AEDTC","AESTDTC","AEENDTC","AESTDY","AEENDY"],"digest":"xxhash64:1ac146b719828a95"},{"source":"sv","rows":3559,"cols":8,"columns":["STUDYID","DOMAIN","USUBJID","VISITNUM","VISIT","VISITDY","SVSTDTC","SVENDTC"],"digest":"xxhash64:b84b26051ef5ae3d"},{"source":"ds","rows":596,"cols":13,"columns":["STUDYID","DOMAIN","USUBJID","DSSEQ","DSSPID","DSTERM","DSDECOD","DSCAT","VISITNUM","VISIT","DSDTC","DSSTDTC","DSSTDY"],"digest":"xxhash64:6ecf56d5f8d6e3d6"},{"source":"sc","rows":254,"cols":14,"columns":["STUDYID","DOMAIN","USUBJID","SCSEQ","SCTESTCD","SCTEST","SCCAT","SCORRES","SCORRESU","SCSTRESC","SCSTRESN","SCSTRESU","SCDTC","SCDY"],"digest":"xxhash64:87df85a85d620821"},{"source":"mh","rows":1818,"cols":19,"columns":["STUDYID","DOMAIN","USUBJID","MHSEQ","MHSPID","MHTERM","MHLLT","MHDECOD","MHHLT","MHHLGT","MHCAT","MHBODSYS","MHSEV","VISITNUM","VISIT","VISITDY","MHDTC","MHSTDTC","MHDY"],"digest":"xxhash64:c186fa80a06f46e2"},{"source":"qs","rows":121749,"cols":20,"columns":["STUDYID","DOMAIN","USUBJID","QSSEQ","QSTESTCD","QSTEST","QSCAT","QSSCAT","QSORRES","QSORRESU","QSSTRESC","QSSTRESN","QSSTRESU","QSBLFL","QSDRVFL","VISITNUM","VISIT","VISITDY","QSDTC","QSDY"],"digest":"xxhash64:9e99f89f1f2e4101"},{"source":"lb","rows":59580,"cols":25,"columns":["STUDYID","DOMAIN","USUBJID","LBSEQ","LBTESTCD","LBTEST","LBCAT","LBORRES","LBORRESU","LBORNRLO","LBORNRHI","LBSTRESC","LBSTRESN","LBSTRESU","LBSTNRLO","LBSTNRHI","LBNRIND","LBBLFL","VISITNUM","VISIT","VISITDY","LBDTC","LBDY","AVAL","PARAMCD"],"digest":"xxhash64:b534820922fc3e6d"},{"source":"adsl","rows":306,"cols":29,"columns":["STUDYID","DOMAIN","USUBJID","SUBJID","RFSTDTC","RFENDTC","RFXSTDTC","RFXENDTC","RFICDTC","RFPENDTC","DTHDTC","DTHFL","SITEID","AGE","AGEU","SEX","RACE","ETHNIC","ARMCD","ARM","ACTARMCD","ACTARM","COUNTRY","DMDTC","DMDY","TRT01P","TRT01A","RFENDT","RFENDTF"],"digest":"xxhash64:534c632f6ae3b8c3"},{"source":"mc","rows":null,"cols":null,"columns":null,"digest":"xxhash64:730165d6dab8dd8f"}],"source_data_digest":"sources:49961fdc80dcbb7f","ir_hash":"fa98b785","backend":null,"model":null,"seed":null,"temperature":null,"prompt_digest":null,"gate_enforced":true,"gate_id":null},"prev":"414ff5e80a2e4048fbe737762244a8922e38dabead72be183b026fc4a613909b","mode":"sha256","digest":"73b2c95054893362069fcda5cabe008afe5265158c82a17e0c063474ab316723"}
