"variable","status","note"
"STUDYID","EXECUTED",""
"SUBJID","ERROR","column 'SUBJID' is missing from source dataset 'ADLBC'"
"USUBJID","EXECUTED",""
"TRTP","ERROR","column 'TRT01P' is missing from source dataset 'ADLBC'"
"TRTPN","ERROR","column 'TRT01PN' is missing from source dataset 'ADLBC'"
"TRTA","ERROR","column 'TRT01A' is missing from source dataset 'ADLBC'"
"TRTAN","ERROR","column 'TRT01AN' is missing from source dataset 'ADLBC'"
"TRTSDT","ERROR","column 'TRTSDT' is missing from source dataset 'ADLBC'"
"TRTEDT","ERROR","column 'TRTEDT' is missing from source dataset 'ADLBC'"
"AGE","ERROR","column 'AGE' is missing from source dataset 'ADLBC'"
"AGEGR1","ERROR","column 'AGEGR1' is missing from source dataset 'ADLBC'"
"AGEGR1N","ERROR","column 'AGEGR1N' is missing from source dataset 'ADLBC'"
"RACE","ERROR","column 'RACE' is missing from source dataset 'ADLBC'"
"RACEN","ERROR","column 'RACEN' is missing from source dataset 'ADLBC'"
"SEX","ERROR","column 'SEX' is missing from source dataset 'ADLBC'"
"COMP24FL","ERROR","column 'COM01P24FL' is missing from source dataset 'ADLBC'"
"DSRAEFL","ERROR","column 'DSR01AEFL' is missing from source dataset 'ADLBC'"
"SAFFL","ERROR","column 'SAF01FL' is missing from source dataset 'ADLBC'"
"ADY","EXECUTED",""
"ADT","EXECUTED",""
"VISIT","EXECUTED",""
"VISITNUM","EXECUTED",""
"PARAMCD","ERROR","column 'TESTCD' is missing from source dataset 'ADLBC'"
"BASE","EXECUTED",""
"A1LO","EXECUTED",""
"A1HI","EXECUTED",""
"ABLFL","EXECUTED",""
"LBSEQ","EXECUTED",""
"LBNRIND","EXECUTED",""
"LBSTRESN","EXECUTED",""
"AVAL","EXECUTED",""
"CHG","EXECUTED",""
"AVISIT","REVIEW","needs human decision"
"AVISITN","REVIEW","needs human decision"
"PARAM","REVIEW","needs human decision"
"PARAMN","REVIEW","needs human decision"
"PARCAT1","REVIEW","needs human decision"
"R2A1LO","REVIEW","needs human decision"
"R2A1HI","REVIEW","needs human decision"
"BR2A1LO","REVIEW","needs human decision"
"BR2A1HI","REVIEW","needs human decision"
"ANL01FL","REVIEW","needs human decision"
"ALBTRVAL","REVIEW","needs human decision"
"ANRIND","REVIEW","needs human decision"
"BNRIND","REVIEW","needs human decision"
"AENTMTFL","REVIEW","needs human decision"
