{"schema":"admiralagent-audit-1","seq":1,"time":"2026-10-01T20:06:04-0400","package_version":"0.1.0","event":"execute_variable","details":{"run_id":"run683c587f1bd8","dataset":"ADLBC","variable":"TRTP","status":"EXECUTED","layers":"merge_var","note":""},"prev":"0000000000000000000000000000000000000000000000000000000000000000","mode":"sha256","digest":"47d77dd686c5602d525b6979e7bc2374ee59281a69815b364de07efd6d9c8c4e"}
{"schema":"admiralagent-audit-1","seq":2,"time":"2026-10-01T20:06:04-0400","package_version":"0.1.0","event":"execute_variable","details":{"run_id":"run683c587f1bd8","dataset":"ADLBC","variable":"TRTPN","status":"ERROR","layers":"merge_var","note":"column 'TRT01PN' is missing from source dataset 'adsl'"},"prev":"47d77dd686c5602d525b6979e7bc2374ee59281a69815b364de07efd6d9c8c4e","mode":"sha256","digest":"bfd8914cf5b531fc14a8a142ac56d60aeaee6c4c13d309af2d09e4854671be8f"}
{"schema":"admiralagent-audit-1","seq":3,"time":"2026-10-01T20:06:04-0400","package_version":"0.1.0","event":"execute_variable","details":{"run_id":"run683c587f1bd8","dataset":"ADLBC","variable":"TRTA","status":"EXECUTED","layers":"merge_var","note":""},"prev":"bfd8914cf5b531fc14a8a142ac56d60aeaee6c4c13d309af2d09e4854671be8f","mode":"sha256","digest":"8e2b23531c56ce530fbbe0dcf12552e3be9735baf72404eeb44331f0a67fa8dd"}
{"schema":"admiralagent-audit-1","seq":4,"time":"2026-10-01T20:06:04-0400","package_version":"0.1.0","event":"execute_variable","details":{"run_id":"run683c587f1bd8","dataset":"ADLBC","variable":"TRTAN","status":"ERROR","layers":"merge_var","note":"column 'TRT01AN' is missing from source dataset 'adsl'"},"prev":"8e2b23531c56ce530fbbe0dcf12552e3be9735baf72404eeb44331f0a67fa8dd","mode":"sha256","digest":"278af8e377bd19a6b336ee880675f10567285dcf084b65b89659a6d7f1ad5b2f"}
{"schema":"admiralagent-audit-1","seq":5,"time":"2026-10-01T20:06:04-0400","package_version":"0.1.0","event":"execute_variable","details":{"run_id":"run683c587f1bd8","dataset":"ADLBC","variable":"ADT","status":"EXECUTED","layers":"impute_dtc","note":""},"prev":"278af8e377bd19a6b336ee880675f10567285dcf084b65b89659a6d7f1ad5b2f","mode":"sha256","digest":"86e2f7d0299695ac186dcb8f8a445346b862c9623f5508edc9ffa606fbe235f6"}
{"schema":"admiralagent-audit-1","seq":6,"time":"2026-10-01T20:06:04-0400","package_version":"0.1.0","event":"execute_variable","details":{"run_id":"run683c587f1bd8","dataset":"ADLBC","variable":"ADY","status":"EXECUTED","layers":"assign","note":""},"prev":"86e2f7d0299695ac186dcb8f8a445346b862c9623f5508edc9ffa606fbe235f6","mode":"sha256","digest":"75372c4a7a04805d0d9146ea9038245d7d5afebbffed7704b46f5540ff1eb6b5"}
{"schema":"admiralagent-audit-1","seq":7,"time":"2026-10-01T20:06:04-0400","package_version":"0.1.0","event":"execute_variable","details":{"run_id":"run683c587f1bd8","dataset":"ADLBC","variable":"BASE","status":"EXECUTED","layers":"assign","note":""},"prev":"75372c4a7a04805d0d9146ea9038245d7d5afebbffed7704b46f5540ff1eb6b5","mode":"sha256","digest":"1b85a1331de653853f3790dd9e399f61e5affa8b9f2c199778cbdcd9c4c5c532"}
{"schema":"admiralagent-audit-1","seq":8,"time":"2026-10-01T20:06:04-0400","package_version":"0.1.0","event":"execute_variable","details":{"run_id":"run683c587f1bd8","dataset":"ADLBC","variable":"A1LO","status":"EXECUTED","layers":"assign","note":""},"prev":"1b85a1331de653853f3790dd9e399f61e5affa8b9f2c199778cbdcd9c4c5c532","mode":"sha256","digest":"76e73724ba09d7c91cd51578af08ff45ca6f3d5de3564da8d350e1076564358b"}
{"schema":"admiralagent-audit-1","seq":9,"time":"2026-10-01T20:06:04-0400","package_version":"0.1.0","event":"execute_variable","details":{"run_id":"run683c587f1bd8","dataset":"ADLBC","variable":"CHG","status":"EXECUTED","layers":"compute_var","note":""},"prev":"76e73724ba09d7c91cd51578af08ff45ca6f3d5de3564da8d350e1076564358b","mode":"sha256","digest":"5602073deb575a20c71d93706cde7dce1ab97cf1b3f521ec50c1dc8d2fde5170"}
{"schema":"admiralagent-audit-1","seq":10,"time":"2026-10-01T20:06:04-0400","package_version":"0.1.0","event":"execute_variable","details":{"run_id":"run683c587f1bd8","dataset":"ADLBC","variable":"AVISIT","status":"REVIEW","layers":[],"note":"needs human decision"},"prev":"5602073deb575a20c71d93706cde7dce1ab97cf1b3f521ec50c1dc8d2fde5170","mode":"sha256","digest":"4519824cdbd00a37786164aaf5a6127380b90304b12951e8b447c11307345f21"}
{"schema":"admiralagent-audit-1","seq":11,"time":"2026-10-01T20:06:04-0400","package_version":"0.1.0","event":"execute_variable","details":{"run_id":"run683c587f1bd8","dataset":"ADLBC","variable":"PARAM","status":"REVIEW","layers":[],"note":"needs human decision"},"prev":"4519824cdbd00a37786164aaf5a6127380b90304b12951e8b447c11307345f21","mode":"sha256","digest":"59b2d0c49f14f98b77175b64e26019a331a4c56234906b4165e1c040ba68b9f4"}
{"schema":"admiralagent-audit-1","seq":12,"time":"2026-10-01T20:06:04-0400","package_version":"0.1.0","event":"execute_variable","details":{"run_id":"run683c587f1bd8","dataset":"ADLBC","variable":"PARAMN","status":"REVIEW","layers":[],"note":"needs human decision"},"prev":"59b2d0c49f14f98b77175b64e26019a331a4c56234906b4165e1c040ba68b9f4","mode":"sha256","digest":"189177848bc80535da0bbb87a5832275d26c477997396eafa189aca64a3b5cd3"}
{"schema":"admiralagent-audit-1","seq":13,"time":"2026-10-01T20:06:05-0400","package_version":"0.1.0","event":"run_manifest","details":{"manifest_schema":"admiralagent-manifest-1","run_id":"run683c587f1bd8","r_version":"R version 4.6.0 (2026-04-24 ucrt)","r_release":"4.6.0","platform":"x86_64-w64-mingw32","packages":{"admiral":"1.5.0.9011","metatools":"0.3.0","dplyr":"1.2.1","rlang":"1.3.0"},"package_version":"0.1.0","package_version_source":"fallback","package_version_reliable":false,"operator":"JaimeYan","operator_source":"session","source_data":[{"source":"base","rows":59580,"cols":25,"columns":["STUDYID","DOMAIN","USUBJID","LBSEQ","LBTESTCD","LBTEST","LBCAT","LBORRES","LBORRESU","LBORNRLO","LBORNRHI","LBSTRESC","LBSTRESN","LBSTRESU","LBSTNRLO","LBSTNRHI","LBNRIND","LBBLFL","VISITNUM","VISIT","VISITDY","LBDTC","LBDY","AVAL","PARAMCD"],"digest":"xxhash64:b534820922fc3e6d"},{"source":"dm","rows":306,"cols":25,"columns":["STUDYID","DOMAIN","USUBJID","SUBJID","RFSTDTC","RFENDTC","RFXSTDTC","RFXENDTC","RFICDTC","RFPENDTC","DTHDTC","DTHFL","SITEID","AGE","AGEU","SEX","RACE","ETHNIC","ARMCD","ARM","ACTARMCD","ACTARM","COUNTRY","DMDTC","DMDY"],"digest":"xxhash64:6aeb909cce25d84b"},{"source":"ex","rows":591,"cols":17,"columns":["STUDYID","DOMAIN","USUBJID","EXSEQ","EXTRT","EXDOSE","EXDOSU","EXDOSFRM","EXDOSFRQ","EXROUTE","VISITNUM","VISIT","VISITDY","EXSTDTC","EXENDTC","EXSTDY","EXENDY"],"digest":"xxhash64:011a6b5c369aa767"},{"source":"vs","rows":29643,"cols":26,"columns":["STUDYID","DOMAIN","USUBJID","VSSEQ","VSTESTCD","VSTEST","VSPOS","VSORRES","VSORRESU","VSSTRESC","VSSTRESN","VSSTRESU","VSSTAT","VSLOC","VSBLFL","VISITNUM","VISIT","VISITDY","VSDTC","VSDY","VSTPT","VSTPTNUM","VSELTM","VSTPTREF","AVAL","PARAMCD"],"digest":"xxhash64:64dad7bc779481b8"},{"source":"ae","rows":1191,"cols":35,"columns":["STUDYID","DOMAIN","USUBJID","AESEQ","AESPID","AETERM","AELLT","AELLTCD","AEDECOD","AEPTCD","AEHLT","AEHLTCD","AEHLGT","AEHLGTCD","AEBODSYS","AEBDSYCD","AESOC","AESOCCD","AESEV","AESER","AEACN","AEREL","AEOUT","AESCAN","AESCONG","AESDISAB","AESDTH","AESHOSP","AESLIFE","AESOD","AEDTC","AESTDTC","AEENDTC","AESTDY","AEENDY"],"digest":"xxhash64:1ac146b719828a95"},{"source":"sv","rows":3559,"cols":8,"columns":["STUDYID","DOMAIN","USUBJID","VISITNUM","VISIT","VISITDY","SVSTDTC","SVENDTC"],"digest":"xxhash64:b84b26051ef5ae3d"},{"source":"ds","rows":596,"cols":13,"columns":["STUDYID","DOMAIN","USUBJID","DSSEQ","DSSPID","DSTERM","DSDECOD","DSCAT","VISITNUM","VISIT","DSDTC","DSSTDTC","DSSTDY"],"digest":"xxhash64:6ecf56d5f8d6e3d6"},{"source":"sc","rows":254,"cols":14,"columns":["STUDYID","DOMAIN","USUBJID","SCSEQ","SCTESTCD","SCTEST","SCCAT","SCORRES","SCORRESU","SCSTRESC","SCSTRESN","SCSTRESU","SCDTC","SCDY"],"digest":"xxhash64:87df85a85d620821"},{"source":"mh","rows":1818,"cols":19,"columns":["STUDYID","DOMAIN","USUBJID","MHSEQ","MHSPID","MHTERM","MHLLT","MHDECOD","MHHLT","MHHLGT","MHCAT","MHBODSYS","MHSEV","VISITNUM","VISIT","VISITDY","MHDTC","MHSTDTC","MHDY"],"digest":"xxhash64:c186fa80a06f46e2"},{"source":"qs","rows":121749,"cols":20,"columns":["STUDYID","DOMAIN","USUBJID","QSSEQ","QSTESTCD","QSTEST","QSCAT","QSSCAT","QSORRES","QSORRESU","QSSTRESC","QSSTRESN","QSSTRESU","QSBLFL","QSDRVFL","VISITNUM","VISIT","VISITDY","QSDTC","QSDY"],"digest":"xxhash64:9e99f89f1f2e4101"},{"source":"lb","rows":59580,"cols":25,"columns":["STUDYID","DOMAIN","USUBJID","LBSEQ","LBTESTCD","LBTEST","LBCAT","LBORRES","LBORRESU","LBORNRLO","LBORNRHI","LBSTRESC","LBSTRESN","LBSTRESU","LBSTNRLO","LBSTNRHI","LBNRIND","LBBLFL","VISITNUM","VISIT","VISITDY","LBDTC","LBDY","AVAL","PARAMCD"],"digest":"xxhash64:b534820922fc3e6d"},{"source":"adsl","rows":306,"cols":30,"columns":["STUDYID","DOMAIN","USUBJID","SUBJID","RFSTDTC","RFENDTC","RFXSTDTC","RFXENDTC","RFICDTC","RFPENDTC","DTHDTC","DTHFL","SITEID","AGE","AGEU","SEX","RACE","ETHNIC","ARMCD","ARM","ACTARMCD","ACTARM","COUNTRY","DMDTC","DMDY","SVSTDTC","TRTSDT","TRTSDTF","TRT01P","TRT01A"],"digest":"xxhash64:092c50232653f888"},{"source":"mc","rows":null,"cols":null,"columns":null,"digest":"xxhash64:730165d6dab8dd8f"}],"source_data_digest":"sources:5d723a94ced6d64c","ir_hash":"54910556","backend":null,"model":null,"seed":null,"temperature":null,"prompt_digest":null,"gate_enforced":true,"gate_id":null},"prev":"189177848bc80535da0bbb87a5832275d26c477997396eafa189aca64a3b5cd3","mode":"sha256","digest":"b311d85f8b4e880d4d9dfd44e856ddeb008ee5af13c7f34159208d66257e5bea"}
