{"schema":"admiralagent-audit-1","seq":1,"time":"2026-10-01T12:45:39-0400","package_version":"0.1.0","event":"execute_variable","details":{"run_id":"run47506b577efb","dataset":"ADSL","variable":"TRTSDT","status":"EXECUTED","layers":["merge_var","impute_dtc"],"note":""},"prev":"0000000000000000000000000000000000000000000000000000000000000000","mode":"sha256","digest":"90da8677e7ff39d75cd0b2cc04faaba79b4fdf7db324e2bfca2a0e9f37914cf9"}
{"schema":"admiralagent-audit-1","seq":2,"time":"2026-10-01T12:45:39-0400","package_version":"0.1.0","event":"execute_variable","details":{"run_id":"run47506b577efb","dataset":"ADSL","variable":"SUBJID","status":"EXECUTED","layers":"assign","note":""},"prev":"90da8677e7ff39d75cd0b2cc04faaba79b4fdf7db324e2bfca2a0e9f37914cf9","mode":"sha256","digest":"7ca914d3e823440b9a3b8ae870967a0db5e4cb4b9356a446366b202ba60be831"}
{"schema":"admiralagent-audit-1","seq":3,"time":"2026-10-01T12:45:40-0400","package_version":"0.1.0","event":"execute_variable","details":{"run_id":"run47506b577efb","dataset":"ADSL","variable":"SITEID","status":"EXECUTED","layers":"assign","note":""},"prev":"7ca914d3e823440b9a3b8ae870967a0db5e4cb4b9356a446366b202ba60be831","mode":"sha256","digest":"e3fc34444522eee156221c2f440104cd262800f32566deb37fbb477791fa2b9f"}
{"schema":"admiralagent-audit-1","seq":4,"time":"2026-10-01T12:45:40-0400","package_version":"0.1.0","event":"execute_variable","details":{"run_id":"run47506b577efb","dataset":"ADSL","variable":"ARM","status":"EXECUTED","layers":"assign","note":""},"prev":"e3fc34444522eee156221c2f440104cd262800f32566deb37fbb477791fa2b9f","mode":"sha256","digest":"f70e6111c48b5b33618a0db53418420a5bf75c033923b6be08784f50f1085f70"}
{"schema":"admiralagent-audit-1","seq":5,"time":"2026-10-01T12:45:40-0400","package_version":"0.1.0","event":"execute_variable","details":{"run_id":"run47506b577efb","dataset":"ADSL","variable":"TRT01P","status":"EXECUTED","layers":"assign","note":""},"prev":"f70e6111c48b5b33618a0db53418420a5bf75c033923b6be08784f50f1085f70","mode":"sha256","digest":"78d408634ba30012b6503985efcc5a4d22d08f0e2e56b37561efe25fd14cde6d"}
{"schema":"admiralagent-audit-1","seq":6,"time":"2026-10-01T12:45:40-0400","package_version":"0.1.0","event":"execute_variable","details":{"run_id":"run47506b577efb","dataset":"ADSL","variable":"TRT01A","status":"EXECUTED","layers":"assign","note":""},"prev":"78d408634ba30012b6503985efcc5a4d22d08f0e2e56b37561efe25fd14cde6d","mode":"sha256","digest":"4dc7e33715d520bf83f07fad74bd3210e315292c63fd83f560ea845a719e1730"}
{"schema":"admiralagent-audit-1","seq":7,"time":"2026-10-01T12:45:40-0400","package_version":"0.1.0","event":"execute_variable","details":{"run_id":"run47506b577efb","dataset":"ADSL","variable":"TRTDURD","status":"ERROR","layers":"compute_var","note":"column 'TRTEDT' is missing from source dataset 'ADSL'"},"prev":"4dc7e33715d520bf83f07fad74bd3210e315292c63fd83f560ea845a719e1730","mode":"sha256","digest":"a8a849720aabdf1a81543e1ba29bbcafc04203d5232d3e05224c616614743d14"}
{"schema":"admiralagent-audit-1","seq":8,"time":"2026-10-01T12:45:40-0400","package_version":"0.1.0","event":"execute_variable","details":{"run_id":"run47506b577efb","dataset":"ADSL","variable":"SITEGR1","status":"REVIEW","layers":[],"note":"needs human decision"},"prev":"a8a849720aabdf1a81543e1ba29bbcafc04203d5232d3e05224c616614743d14","mode":"sha256","digest":"2b2b5b81f92258746e45b7691d8e21a027ccd221aa2f0c158b7ef756acb09625"}
{"schema":"admiralagent-audit-1","seq":9,"time":"2026-10-01T12:45:40-0400","package_version":"0.1.0","event":"execute_variable","details":{"run_id":"run47506b577efb","dataset":"ADSL","variable":"TRT01PN","status":"REVIEW","layers":[],"note":"needs human decision"},"prev":"2b2b5b81f92258746e45b7691d8e21a027ccd221aa2f0c158b7ef756acb09625","mode":"sha256","digest":"9742bd1afb15c863ea91b1a630652a72913f420203df6e07e914b163a48fb3bf"}
{"schema":"admiralagent-audit-1","seq":10,"time":"2026-10-01T12:45:40-0400","package_version":"0.1.0","event":"execute_variable","details":{"run_id":"run47506b577efb","dataset":"ADSL","variable":"TRT01AN","status":"REVIEW","layers":[],"note":"needs human decision"},"prev":"9742bd1afb15c863ea91b1a630652a72913f420203df6e07e914b163a48fb3bf","mode":"sha256","digest":"5baf6cf2fdda5df6719182884886014cfa8890c8050a339570a009dac27c7910"}
{"schema":"admiralagent-audit-1","seq":11,"time":"2026-10-01T12:45:40-0400","package_version":"0.1.0","event":"execute_variable","details":{"run_id":"run47506b577efb","dataset":"ADSL","variable":"TRTEDT","status":"REVIEW","layers":["merge_var","impute_dtc"],"note":"needs human decision"},"prev":"5baf6cf2fdda5df6719182884886014cfa8890c8050a339570a009dac27c7910","mode":"sha256","digest":"fcd4aa627aca0f5afe41e7c1aab7a87903b39593069271512fa4b2efbcabe1a2"}
{"schema":"admiralagent-audit-1","seq":12,"time":"2026-10-01T12:45:40-0400","package_version":"0.1.0","event":"execute_variable","details":{"run_id":"run47506b577efb","dataset":"ADSL","variable":"AVGDD","status":"REVIEW","layers":"compute_var","note":"needs human decision"},"prev":"fcd4aa627aca0f5afe41e7c1aab7a87903b39593069271512fa4b2efbcabe1a2","mode":"sha256","digest":"e0a152a2f1f09f4eba85f1c9eba6257e8bfeefb84441addecc79e38854b23085"}
{"schema":"admiralagent-audit-1","seq":13,"time":"2026-10-01T12:45:40-0400","package_version":"0.1.0","event":"run_manifest","details":{"manifest_schema":"admiralagent-manifest-1","run_id":"run47506b577efb","r_version":"R version 4.6.0 (2026-04-24 ucrt)","r_release":"4.6.0","platform":"x86_64-w64-mingw32","packages":{"admiral":"1.5.0.9011","metatools":"0.3.0","dplyr":"1.2.1","rlang":"1.3.0"},"package_version":"0.1.0","package_version_source":"fallback","package_version_reliable":false,"operator":"JaimeYan","operator_source":"session","source_data":[{"source":"base","rows":306,"cols":25,"columns":["STUDYID","DOMAIN","USUBJID","SUBJID","RFSTDTC","RFENDTC","RFXSTDTC","RFXENDTC","RFICDTC","RFPENDTC","DTHDTC","DTHFL","SITEID","AGE","AGEU","SEX","RACE","ETHNIC","ARMCD","ARM","ACTARMCD","ACTARM","COUNTRY","DMDTC","DMDY"],"digest":"xxhash64:6aeb909cce25d84b"},{"source":"ex","rows":591,"cols":17,"columns":["STUDYID","DOMAIN","USUBJID","EXSEQ","EXTRT","EXDOSE","EXDOSU","EXDOSFRM","EXDOSFRQ","EXROUTE","VISITNUM","VISIT","VISITDY","EXSTDTC","EXENDTC","EXSTDY","EXENDY"],"digest":"xxhash64:011a6b5c369aa767"},{"source":"vs","rows":29643,"cols":26,"columns":["STUDYID","DOMAIN","USUBJID","VSSEQ","VSTESTCD","VSTEST","VSPOS","VSORRES","VSORRESU","VSSTRESC","VSSTRESN","VSSTRESU","VSSTAT","VSLOC","VSBLFL","VISITNUM","VISIT","VISITDY","VSDTC","VSDY","VSTPT","VSTPTNUM","VSELTM","VSTPTREF","AVAL","PARAMCD"],"digest":"xxhash64:64dad7bc779481b8"},{"source":"ae","rows":1191,"cols":35,"columns":["STUDYID","DOMAIN","USUBJID","AESEQ","AESPID","AETERM","AELLT","AELLTCD","AEDECOD","AEPTCD","AEHLT","AEHLTCD","AEHLGT","AEHLGTCD","AEBODSYS","AEBDSYCD","AESOC","AESOCCD","AESEV","AESER","AEACN","AEREL","AEOUT","AESCAN","AESCONG","AESDISAB","AESDTH","AESHOSP","AESLIFE","AESOD","AEDTC","AESTDTC","AEENDTC","AESTDY","AEENDY"],"digest":"xxhash64:1ac146b719828a95"},{"source":"sv","rows":3559,"cols":8,"columns":["STUDYID","DOMAIN","USUBJID","VISITNUM","VISIT","VISITDY","SVSTDTC","SVENDTC"],"digest":"xxhash64:b84b26051ef5ae3d"},{"source":"ds","rows":596,"cols":13,"columns":["STUDYID","DOMAIN","USUBJID","DSSEQ","DSSPID","DSTERM","DSDECOD","DSCAT","VISITNUM","VISIT","DSDTC","DSSTDTC","DSSTDY"],"digest":"xxhash64:6ecf56d5f8d6e3d6"},{"source":"sc","rows":254,"cols":14,"columns":["STUDYID","DOMAIN","USUBJID","SCSEQ","SCTESTCD","SCTEST","SCCAT","SCORRES","SCORRESU","SCSTRESC","SCSTRESN","SCSTRESU","SCDTC","SCDY"],"digest":"xxhash64:87df85a85d620821"},{"source":"mh","rows":1818,"cols":19,"columns":["STUDYID","DOMAIN","USUBJID","MHSEQ","MHSPID","MHTERM","MHLLT","MHDECOD","MHHLT","MHHLGT","MHCAT","MHBODSYS","MHSEV","VISITNUM","VISIT","VISITDY","MHDTC","MHSTDTC","MHDY"],"digest":"xxhash64:c186fa80a06f46e2"},{"source":"qs","rows":121749,"cols":20,"columns":["STUDYID","DOMAIN","USUBJID","QSSEQ","QSTESTCD","QSTEST","QSCAT","QSSCAT","QSORRES","QSORRESU","QSSTRESC","QSSTRESN","QSSTRESU","QSBLFL","QSDRVFL","VISITNUM","VISIT","VISITDY","QSDTC","QSDY"],"digest":"xxhash64:9e99f89f1f2e4101"}],"source_data_digest":"sources:a43672e4126d6213","ir_hash":"f2f6fe52","backend":null,"model":null,"seed":null,"temperature":null,"prompt_digest":null,"gate_enforced":true,"gate_id":null},"prev":"e0a152a2f1f09f4eba85f1c9eba6257e8bfeefb84441addecc79e38854b23085","mode":"sha256","digest":"84e4973589e38925a98c2bb0eb949127de95e709475a74979818861f4d0dd19a"}
