{"schema":"admiralagent-audit-1","seq":1,"time":"2026-10-01T20:05:56-0400","package_version":"0.1.0","event":"execute_variable","details":{"run_id":"run683c58672c24","dataset":"ADAE","variable":"SITEID","status":"EXECUTED","layers":"merge_var","note":""},"prev":"0000000000000000000000000000000000000000000000000000000000000000","mode":"sha256","digest":"d9253467adc9cd5105f06e01698b60a7268868c184a78c76b47ee6f4701c7207"}
{"schema":"admiralagent-audit-1","seq":2,"time":"2026-10-01T20:05:56-0400","package_version":"0.1.0","event":"execute_variable","details":{"run_id":"run683c58672c24","dataset":"ADAE","variable":"TRTA","status":"EXECUTED","layers":"merge_var","note":""},"prev":"d9253467adc9cd5105f06e01698b60a7268868c184a78c76b47ee6f4701c7207","mode":"sha256","digest":"08408224cae8d5869355a541263cf012e3b31bafa753df1701184ac028a7aa69"}
{"schema":"admiralagent-audit-1","seq":3,"time":"2026-10-01T20:05:56-0400","package_version":"0.1.0","event":"execute_variable","details":{"run_id":"run683c58672c24","dataset":"ADAE","variable":"TRTAN","status":"ERROR","layers":"merge_var","note":"column 'TRT01AN' is missing from source dataset 'adsl'"},"prev":"08408224cae8d5869355a541263cf012e3b31bafa753df1701184ac028a7aa69","mode":"sha256","digest":"d868d3a3436f71d07784bbe5890948b2c2628277b69141b965d945077e5231c1"}
{"schema":"admiralagent-audit-1","seq":4,"time":"2026-10-01T20:05:56-0400","package_version":"0.1.0","event":"execute_variable","details":{"run_id":"run683c58672c24","dataset":"ADAE","variable":"AGE","status":"EXECUTED","layers":"merge_var","note":""},"prev":"d868d3a3436f71d07784bbe5890948b2c2628277b69141b965d945077e5231c1","mode":"sha256","digest":"1cbaae90e04384591dc4ab0d049fcff518168be6795ddf90ea262aed2f61000f"}
{"schema":"admiralagent-audit-1","seq":5,"time":"2026-10-01T20:05:56-0400","package_version":"0.1.0","event":"execute_variable","details":{"run_id":"run683c58672c24","dataset":"ADAE","variable":"AGEGR1","status":"ERROR","layers":"merge_var","note":"column 'AGEGR1' is missing from source dataset 'adsl'"},"prev":"1cbaae90e04384591dc4ab0d049fcff518168be6795ddf90ea262aed2f61000f","mode":"sha256","digest":"53169dac561c6fd0341e85a0d8f345f39ca33ed4a11f4a481aac02a392b9d6b2"}
{"schema":"admiralagent-audit-1","seq":6,"time":"2026-10-01T20:05:56-0400","package_version":"0.1.0","event":"execute_variable","details":{"run_id":"run683c58672c24","dataset":"ADAE","variable":"AGEGR1N","status":"ERROR","layers":"merge_var","note":"column 'AGEGR1N' is missing from source dataset 'adsl'"},"prev":"53169dac561c6fd0341e85a0d8f345f39ca33ed4a11f4a481aac02a392b9d6b2","mode":"sha256","digest":"ccf43af395ab686d8dd3f9730675c502f6cc8dbecd0fb1eba4776975360a225c"}
{"schema":"admiralagent-audit-1","seq":7,"time":"2026-10-01T20:05:56-0400","package_version":"0.1.0","event":"execute_variable","details":{"run_id":"run683c58672c24","dataset":"ADAE","variable":"RACE","status":"EXECUTED","layers":"merge_var","note":""},"prev":"ccf43af395ab686d8dd3f9730675c502f6cc8dbecd0fb1eba4776975360a225c","mode":"sha256","digest":"64285e19fab47f1da1f241dc2996c631c38603074b0557853ed00941a6ebd1be"}
{"schema":"admiralagent-audit-1","seq":8,"time":"2026-10-01T20:05:56-0400","package_version":"0.1.0","event":"execute_variable","details":{"run_id":"run683c58672c24","dataset":"ADAE","variable":"RACEN","status":"ERROR","layers":"merge_var","note":"column 'RACEN' is missing from source dataset 'adsl'"},"prev":"64285e19fab47f1da1f241dc2996c631c38603074b0557853ed00941a6ebd1be","mode":"sha256","digest":"13386aad939f09a6040acd449fcf5de8c6de5ae01f5944db41e6613302d9f124"}
{"schema":"admiralagent-audit-1","seq":9,"time":"2026-10-01T20:05:56-0400","package_version":"0.1.0","event":"execute_variable","details":{"run_id":"run683c58672c24","dataset":"ADAE","variable":"SEX","status":"EXECUTED","layers":"merge_var","note":""},"prev":"13386aad939f09a6040acd449fcf5de8c6de5ae01f5944db41e6613302d9f124","mode":"sha256","digest":"07bfb389e46a4125748510f5fe0c126db9a94bd0ee0de907d721d12bb8ae0be9"}
{"schema":"admiralagent-audit-1","seq":10,"time":"2026-10-01T20:05:56-0400","package_version":"0.1.0","event":"execute_variable","details":{"run_id":"run683c58672c24","dataset":"ADAE","variable":"SAFFL","status":"ERROR","layers":"merge_var","note":"column 'SAFFL' is missing from source dataset 'adsl'"},"prev":"07bfb389e46a4125748510f5fe0c126db9a94bd0ee0de907d721d12bb8ae0be9","mode":"sha256","digest":"c27d9611d44c37fd577233677b1973ff767cb643cd8e5815b5f61389781147f3"}
{"schema":"admiralagent-audit-1","seq":11,"time":"2026-10-01T20:05:56-0400","package_version":"0.1.0","event":"execute_variable","details":{"run_id":"run683c58672c24","dataset":"ADAE","variable":"TRTSDT","status":"EXECUTED","layers":"merge_var","note":""},"prev":"c27d9611d44c37fd577233677b1973ff767cb643cd8e5815b5f61389781147f3","mode":"sha256","digest":"7fbb5dcef74e08bce466a4be7cdce33be1ebc037dca0d318705612104f3a7f09"}
{"schema":"admiralagent-audit-1","seq":12,"time":"2026-10-01T20:05:56-0400","package_version":"0.1.0","event":"execute_variable","details":{"run_id":"run683c58672c24","dataset":"ADAE","variable":"TRTEDT","status":"ERROR","layers":"merge_var","note":"column 'TRTEDT' is missing from source dataset 'adsl'"},"prev":"7fbb5dcef74e08bce466a4be7cdce33be1ebc037dca0d318705612104f3a7f09","mode":"sha256","digest":"ee13838bd3d081471bb58031430f017b0ece9014a7ff0817b4fc0d814dd7aa99"}
{"schema":"admiralagent-audit-1","seq":13,"time":"2026-10-01T20:05:57-0400","package_version":"0.1.0","event":"run_manifest","details":{"manifest_schema":"admiralagent-manifest-1","run_id":"run683c58672c24","r_version":"R version 4.6.0 (2026-04-24 ucrt)","r_release":"4.6.0","platform":"x86_64-w64-mingw32","packages":{"admiral":"1.5.0.9011","metatools":"0.3.0","dplyr":"1.2.1","rlang":"1.3.0"},"package_version":"0.1.0","package_version_source":"fallback","package_version_reliable":false,"operator":"JaimeYan","operator_source":"session","source_data":[{"source":"base","rows":1191,"cols":35,"columns":["STUDYID","DOMAIN","USUBJID","AESEQ","AESPID","AETERM","AELLT","AELLTCD","AEDECOD","AEPTCD","AEHLT","AEHLTCD","AEHLGT","AEHLGTCD","AEBODSYS","AEBDSYCD","AESOC","AESOCCD","AESEV","AESER","AEACN","AEREL","AEOUT","AESCAN","AESCONG","AESDISAB","AESDTH","AESHOSP","AESLIFE","AESOD","AEDTC","AESTDTC","AEENDTC","AESTDY","AEENDY"],"digest":"xxhash64:1ac146b719828a95"},{"source":"dm","rows":306,"cols":25,"columns":["STUDYID","DOMAIN","USUBJID","SUBJID","RFSTDTC","RFENDTC","RFXSTDTC","RFXENDTC","RFICDTC","RFPENDTC","DTHDTC","DTHFL","SITEID","AGE","AGEU","SEX","RACE","ETHNIC","ARMCD","ARM","ACTARMCD","ACTARM","COUNTRY","DMDTC","DMDY"],"digest":"xxhash64:6aeb909cce25d84b"},{"source":"ex","rows":591,"cols":17,"columns":["STUDYID","DOMAIN","USUBJID","EXSEQ","EXTRT","EXDOSE","EXDOSU","EXDOSFRM","EXDOSFRQ","EXROUTE","VISITNUM","VISIT","VISITDY","EXSTDTC","EXENDTC","EXSTDY","EXENDY"],"digest":"xxhash64:011a6b5c369aa767"},{"source":"vs","rows":29643,"cols":26,"columns":["STUDYID","DOMAIN","USUBJID","VSSEQ","VSTESTCD","VSTEST","VSPOS","VSORRES","VSORRESU","VSSTRESC","VSSTRESN","VSSTRESU","VSSTAT","VSLOC","VSBLFL","VISITNUM","VISIT","VISITDY","VSDTC","VSDY","VSTPT","VSTPTNUM","VSELTM","VSTPTREF","AVAL","PARAMCD"],"digest":"xxhash64:64dad7bc779481b8"},{"source":"ae","rows":1191,"cols":35,"columns":["STUDYID","DOMAIN","USUBJID","AESEQ","AESPID","AETERM","AELLT","AELLTCD","AEDECOD","AEPTCD","AEHLT","AEHLTCD","AEHLGT","AEHLGTCD","AEBODSYS","AEBDSYCD","AESOC","AESOCCD","AESEV","AESER","AEACN","AEREL","AEOUT","AESCAN","AESCONG","AESDISAB","AESDTH","AESHOSP","AESLIFE","AESOD","AEDTC","AESTDTC","AEENDTC","AESTDY","AEENDY"],"digest":"xxhash64:1ac146b719828a95"},{"source":"sv","rows":3559,"cols":8,"columns":["STUDYID","DOMAIN","USUBJID","VISITNUM","VISIT","VISITDY","SVSTDTC","SVENDTC"],"digest":"xxhash64:b84b26051ef5ae3d"},{"source":"ds","rows":596,"cols":13,"columns":["STUDYID","DOMAIN","USUBJID","DSSEQ","DSSPID","DSTERM","DSDECOD","DSCAT","VISITNUM","VISIT","DSDTC","DSSTDTC","DSSTDY"],"digest":"xxhash64:6ecf56d5f8d6e3d6"},{"source":"sc","rows":254,"cols":14,"columns":["STUDYID","DOMAIN","USUBJID","SCSEQ","SCTESTCD","SCTEST","SCCAT","SCORRES","SCORRESU","SCSTRESC","SCSTRESN","SCSTRESU","SCDTC","SCDY"],"digest":"xxhash64:87df85a85d620821"},{"source":"mh","rows":1818,"cols":19,"columns":["STUDYID","DOMAIN","USUBJID","MHSEQ","MHSPID","MHTERM","MHLLT","MHDECOD","MHHLT","MHHLGT","MHCAT","MHBODSYS","MHSEV","VISITNUM","VISIT","VISITDY","MHDTC","MHSTDTC","MHDY"],"digest":"xxhash64:c186fa80a06f46e2"},{"source":"qs","rows":121749,"cols":20,"columns":["STUDYID","DOMAIN","USUBJID","QSSEQ","QSTESTCD","QSTEST","QSCAT","QSSCAT","QSORRES","QSORRESU","QSSTRESC","QSSTRESN","QSSTRESU","QSBLFL","QSDRVFL","VISITNUM","VISIT","VISITDY","QSDTC","QSDY"],"digest":"xxhash64:9e99f89f1f2e4101"},{"source":"lb","rows":59580,"cols":25,"columns":["STUDYID","DOMAIN","USUBJID","LBSEQ","LBTESTCD","LBTEST","LBCAT","LBORRES","LBORRESU","LBORNRLO","LBORNRHI","LBSTRESC","LBSTRESN","LBSTRESU","LBSTNRLO","LBSTNRHI","LBNRIND","LBBLFL","VISITNUM","VISIT","VISITDY","LBDTC","LBDY","AVAL","PARAMCD"],"digest":"xxhash64:b534820922fc3e6d"},{"source":"adsl","rows":306,"cols":30,"columns":["STUDYID","DOMAIN","USUBJID","SUBJID","RFSTDTC","RFENDTC","RFXSTDTC","RFXENDTC","RFICDTC","RFPENDTC","DTHDTC","DTHFL","SITEID","AGE","AGEU","SEX","RACE","ETHNIC","ARMCD","ARM","ACTARMCD","ACTARM","COUNTRY","DMDTC","DMDY","SVSTDTC","TRTSDT","TRTSDTF","TRT01P","TRT01A"],"digest":"xxhash64:092c50232653f888"},{"source":"mc","rows":null,"cols":null,"columns":null,"digest":"xxhash64:358636f82552e993"}],"source_data_digest":"sources:9115d2a81a8fbec0","ir_hash":"07fd8680","backend":null,"model":null,"seed":null,"temperature":null,"prompt_digest":null,"gate_enforced":true,"gate_id":null},"prev":"ee13838bd3d081471bb58031430f017b0ece9014a7ff0817b4fc0d814dd7aa99","mode":"sha256","digest":"8316980f58d696011ac5ac8ef161fb1a9f81a518c5ca34444b461d2afd362ddf"}
