{"schema":"admiralagent-audit-1","seq":1,"time":"2026-10-01T12:45:36-0400","package_version":"0.1.0","event":"execute_variable","details":{"run_id":"run47502e032354","dataset":"ADSL","variable":"STUDYID","status":"EXECUTED","layers":"assign","note":""},"prev":"0000000000000000000000000000000000000000000000000000000000000000","mode":"sha256","digest":"f1a5edabc9d312ea2566dbb938f1c6b63a6d162510bdd7117e1a18cfa1f00e2a"}
{"schema":"admiralagent-audit-1","seq":2,"time":"2026-10-01T12:45:36-0400","package_version":"0.1.0","event":"execute_variable","details":{"run_id":"run47502e032354","dataset":"ADSL","variable":"USUBJID","status":"EXECUTED","layers":"assign","note":""},"prev":"f1a5edabc9d312ea2566dbb938f1c6b63a6d162510bdd7117e1a18cfa1f00e2a","mode":"sha256","digest":"7c944f99ac0c923a8735279e8328366d6ac24398104a9a206b659156b34a0bb4"}
{"schema":"admiralagent-audit-1","seq":3,"time":"2026-10-01T12:45:36-0400","package_version":"0.1.0","event":"execute_variable","details":{"run_id":"run47502e032354","dataset":"ADSL","variable":"BMIBLGR1","status":"ERROR","layers":["compute_param","merge_var"],"note":"[duplicate_records] admiral::derive_param_computed() [step 1/2, layer compute_param]: message redacted (may contain data values); enable options(admiralagent.error_detail = TRUE) and read aa_last_error_detail()"},"prev":"7c944f99ac0c923a8735279e8328366d6ac24398104a9a206b659156b34a0bb4","mode":"sha256","digest":"aa1b7d6c60f61057edabab48094a780c4b22dcb162721492bb66d5c6b7e0983c"}
{"schema":"admiralagent-audit-1","seq":4,"time":"2026-10-01T12:45:36-0400","package_version":"0.1.0","event":"execute_variable","details":{"run_id":"run47502e032354","dataset":"ADSL","variable":"SUBJID","status":"EXECUTED","layers":"assign","note":""},"prev":"aa1b7d6c60f61057edabab48094a780c4b22dcb162721492bb66d5c6b7e0983c","mode":"sha256","digest":"3e8a342ffba0b005df4c7717a5db32fe3bd5eb53290f7a9513ad9e7fee21204b"}
{"schema":"admiralagent-audit-1","seq":5,"time":"2026-10-01T12:45:36-0400","package_version":"0.1.0","event":"execute_variable","details":{"run_id":"run47502e032354","dataset":"ADSL","variable":"SITEID","status":"EXECUTED","layers":"assign","note":""},"prev":"3e8a342ffba0b005df4c7717a5db32fe3bd5eb53290f7a9513ad9e7fee21204b","mode":"sha256","digest":"6197cee0b02d78c358ef3c38bb7b4f5bdaaa9155b84da3b5dfecb364e3edeae5"}
{"schema":"admiralagent-audit-1","seq":6,"time":"2026-10-01T12:45:36-0400","package_version":"0.1.0","event":"execute_variable","details":{"run_id":"run47502e032354","dataset":"ADSL","variable":"ARM","status":"EXECUTED","layers":"assign","note":""},"prev":"6197cee0b02d78c358ef3c38bb7b4f5bdaaa9155b84da3b5dfecb364e3edeae5","mode":"sha256","digest":"03e51725a48b043c3c5a5c40bde27073f5b89845549dbcf47cc98cce120dbe70"}
{"schema":"admiralagent-audit-1","seq":7,"time":"2026-10-01T12:45:36-0400","package_version":"0.1.0","event":"execute_variable","details":{"run_id":"run47502e032354","dataset":"ADSL","variable":"TRT01P","status":"EXECUTED","layers":"assign","note":""},"prev":"03e51725a48b043c3c5a5c40bde27073f5b89845549dbcf47cc98cce120dbe70","mode":"sha256","digest":"6c26b16b2c16ab4b1d3615518b4dc4fce7081c313b1f3ba0f4ad39d0efa255cb"}
{"schema":"admiralagent-audit-1","seq":8,"time":"2026-10-01T12:45:36-0400","package_version":"0.1.0","event":"execute_variable","details":{"run_id":"run47502e032354","dataset":"ADSL","variable":"TRT01A","status":"EXECUTED","layers":"assign","note":""},"prev":"6c26b16b2c16ab4b1d3615518b4dc4fce7081c313b1f3ba0f4ad39d0efa255cb","mode":"sha256","digest":"321eee5ccd00ba2ed16a23ef14c7c8095b6ba31b13c9c629296f76b6a659f448"}
{"schema":"admiralagent-audit-1","seq":9,"time":"2026-10-01T12:45:36-0400","package_version":"0.1.0","event":"execute_variable","details":{"run_id":"run47502e032354","dataset":"ADSL","variable":"AGE","status":"EXECUTED","layers":"assign","note":""},"prev":"321eee5ccd00ba2ed16a23ef14c7c8095b6ba31b13c9c629296f76b6a659f448","mode":"sha256","digest":"3bb6349c44682f96e2ef8aa4de78621270a1c877e7488cfd4caabeda780b82db"}
{"schema":"admiralagent-audit-1","seq":10,"time":"2026-10-01T12:45:36-0400","package_version":"0.1.0","event":"execute_variable","details":{"run_id":"run47502e032354","dataset":"ADSL","variable":"AGEU","status":"EXECUTED","layers":"assign","note":""},"prev":"3bb6349c44682f96e2ef8aa4de78621270a1c877e7488cfd4caabeda780b82db","mode":"sha256","digest":"9c6faee3ffc5ccf4e79fcd5976ac49df6a8263a8a349a8f799020f2704fdc379"}
{"schema":"admiralagent-audit-1","seq":11,"time":"2026-10-01T12:45:37-0400","package_version":"0.1.0","event":"execute_variable","details":{"run_id":"run47502e032354","dataset":"ADSL","variable":"RACE","status":"EXECUTED","layers":"assign","note":""},"prev":"9c6faee3ffc5ccf4e79fcd5976ac49df6a8263a8a349a8f799020f2704fdc379","mode":"sha256","digest":"0d746a4473106dc2f995e872bd5c48dee88b2b70cd64916489281b484f78aa74"}
{"schema":"admiralagent-audit-1","seq":12,"time":"2026-10-01T12:45:37-0400","package_version":"0.1.0","event":"execute_variable","details":{"run_id":"run47502e032354","dataset":"ADSL","variable":"SEX","status":"EXECUTED","layers":"assign","note":""},"prev":"0d746a4473106dc2f995e872bd5c48dee88b2b70cd64916489281b484f78aa74","mode":"sha256","digest":"4f3c118bf686570a4b886a73ffeffb67bbd584aa62df7afe6eb0ea584661fd26"}
{"schema":"admiralagent-audit-1","seq":13,"time":"2026-10-01T12:45:37-0400","package_version":"0.1.0","event":"execute_variable","details":{"run_id":"run47502e032354","dataset":"ADSL","variable":"ETHNIC","status":"EXECUTED","layers":"assign","note":""},"prev":"4f3c118bf686570a4b886a73ffeffb67bbd584aa62df7afe6eb0ea584661fd26","mode":"sha256","digest":"7cbe710338f5d05fd30dc1704c047d721d3760b9fefd5420d37ed62afb8b6263"}
{"schema":"admiralagent-audit-1","seq":14,"time":"2026-10-01T12:45:37-0400","package_version":"0.1.0","event":"execute_variable","details":{"run_id":"run47502e032354","dataset":"ADSL","variable":"DTHFL","status":"EXECUTED","layers":"assign","note":""},"prev":"7cbe710338f5d05fd30dc1704c047d721d3760b9fefd5420d37ed62afb8b6263","mode":"sha256","digest":"9c9926bf4dc64e6b2ea1a274805c369500564fa3b9f9372404f080b1356d977f"}
{"schema":"admiralagent-audit-1","seq":15,"time":"2026-10-01T12:45:37-0400","package_version":"0.1.0","event":"execute_variable","details":{"run_id":"run47502e032354","dataset":"ADSL","variable":"RFSTDTC","status":"EXECUTED","layers":"assign","note":""},"prev":"9c9926bf4dc64e6b2ea1a274805c369500564fa3b9f9372404f080b1356d977f","mode":"sha256","digest":"4a919665a3405e8b843af2f82d72310a9f2ef7869c757ffe3a33de7b2be08751"}
{"schema":"admiralagent-audit-1","seq":16,"time":"2026-10-01T12:45:37-0400","package_version":"0.1.0","event":"execute_variable","details":{"run_id":"run47502e032354","dataset":"ADSL","variable":"RFENDTC","status":"EXECUTED","layers":"assign","note":""},"prev":"4a919665a3405e8b843af2f82d72310a9f2ef7869c757ffe3a33de7b2be08751","mode":"sha256","digest":"c712f37de07c5150d584da0894b410660703d8441f03402084e02ace337117e5"}
{"schema":"admiralagent-audit-1","seq":17,"time":"2026-10-01T12:45:37-0400","package_version":"0.1.0","event":"execute_variable","details":{"run_id":"run47502e032354","dataset":"ADSL","variable":"RFENDT","status":"EXECUTED","layers":"impute_dtc","note":""},"prev":"c712f37de07c5150d584da0894b410660703d8441f03402084e02ace337117e5","mode":"sha256","digest":"0cffe3e74ea216752d58cf864f2a79c7f906bacb433f8579850d5168185c6e8a"}
{"schema":"admiralagent-audit-1","seq":18,"time":"2026-10-01T12:45:37-0400","package_version":"0.1.0","event":"execute_variable","details":{"run_id":"run47502e032354","dataset":"ADSL","variable":"SITEGR1","status":"REVIEW","layers":[],"note":"needs human decision"},"prev":"0cffe3e74ea216752d58cf864f2a79c7f906bacb433f8579850d5168185c6e8a","mode":"sha256","digest":"1347ac9bc717e8749d7e7aabf0f6a0838aea7544d4d55b446a636ae522db70ac"}
{"schema":"admiralagent-audit-1","seq":19,"time":"2026-10-01T12:45:37-0400","package_version":"0.1.0","event":"execute_variable","details":{"run_id":"run47502e032354","dataset":"ADSL","variable":"TRT01PN","status":"REVIEW","layers":[],"note":"needs human decision"},"prev":"1347ac9bc717e8749d7e7aabf0f6a0838aea7544d4d55b446a636ae522db70ac","mode":"sha256","digest":"c1db759463f560755273cdc94ebe745593ad866c8763f14282120176013a61f3"}
{"schema":"admiralagent-audit-1","seq":20,"time":"2026-10-01T12:45:37-0400","package_version":"0.1.0","event":"execute_variable","details":{"run_id":"run47502e032354","dataset":"ADSL","variable":"TRT01AN","status":"REVIEW","layers":[],"note":"needs human decision"},"prev":"c1db759463f560755273cdc94ebe745593ad866c8763f14282120176013a61f3","mode":"sha256","digest":"efbac2f6d3394b37794878297a9aff3b37ab5e1f3b19c6a957e36c8b12724add"}
{"schema":"admiralagent-audit-1","seq":21,"time":"2026-10-01T12:45:37-0400","package_version":"0.1.0","event":"execute_variable","details":{"run_id":"run47502e032354","dataset":"ADSL","variable":"TRTSDT","status":"REVIEW","layers":[],"note":"needs human decision"},"prev":"efbac2f6d3394b37794878297a9aff3b37ab5e1f3b19c6a957e36c8b12724add","mode":"sha256","digest":"bdcbbb3deb2eb870594258b93d0cb06982b75e62f5c93eb4247fd8f0704df206"}
{"schema":"admiralagent-audit-1","seq":22,"time":"2026-10-01T12:45:37-0400","package_version":"0.1.0","event":"execute_variable","details":{"run_id":"run47502e032354","dataset":"ADSL","variable":"TRTEDT","status":"REVIEW","layers":[],"note":"needs human decision"},"prev":"bdcbbb3deb2eb870594258b93d0cb06982b75e62f5c93eb4247fd8f0704df206","mode":"sha256","digest":"62010cd994b05660546d1e2492b0c33ff284af8ac914ebdafe70d35721631642"}
{"schema":"admiralagent-audit-1","seq":23,"time":"2026-10-01T12:45:37-0400","package_version":"0.1.0","event":"execute_variable","details":{"run_id":"run47502e032354","dataset":"ADSL","variable":"TRTDURD","status":"REVIEW","layers":[],"note":"needs human decision"},"prev":"62010cd994b05660546d1e2492b0c33ff284af8ac914ebdafe70d35721631642","mode":"sha256","digest":"9fb7063d23b9cb2aa01a477ebef9c2ed3b860f380301d11bfe6238ac5bf07dce"}
{"schema":"admiralagent-audit-1","seq":24,"time":"2026-10-01T12:45:37-0400","package_version":"0.1.0","event":"execute_variable","details":{"run_id":"run47502e032354","dataset":"ADSL","variable":"AVGDD","status":"REVIEW","layers":[],"note":"needs human decision"},"prev":"9fb7063d23b9cb2aa01a477ebef9c2ed3b860f380301d11bfe6238ac5bf07dce","mode":"sha256","digest":"a5a09593ff6b7f760f78540d828deb8c1ad81f9f03f821182136f14d2acf9ee7"}
{"schema":"admiralagent-audit-1","seq":25,"time":"2026-10-01T12:45:37-0400","package_version":"0.1.0","event":"execute_variable","details":{"run_id":"run47502e032354","dataset":"ADSL","variable":"CUMDOSE","status":"REVIEW","layers":[],"note":"needs human decision"},"prev":"a5a09593ff6b7f760f78540d828deb8c1ad81f9f03f821182136f14d2acf9ee7","mode":"sha256","digest":"afce932e919ad4c42facd329b0fd197178b3b64cbbb89eb2ec1c6152d1581d46"}
{"schema":"admiralagent-audit-1","seq":26,"time":"2026-10-01T12:45:37-0400","package_version":"0.1.0","event":"execute_variable","details":{"run_id":"run47502e032354","dataset":"ADSL","variable":"AGEGR1","status":"REVIEW","layers":[],"note":"needs human decision"},"prev":"afce932e919ad4c42facd329b0fd197178b3b64cbbb89eb2ec1c6152d1581d46","mode":"sha256","digest":"88a649e1ee059df71faafe880b22e8100d3c057d71ea46bb259ee9d11c4fc41f"}
{"schema":"admiralagent-audit-1","seq":27,"time":"2026-10-01T12:45:37-0400","package_version":"0.1.0","event":"execute_variable","details":{"run_id":"run47502e032354","dataset":"ADSL","variable":"AGEGR1N","status":"REVIEW","layers":[],"note":"needs human decision"},"prev":"88a649e1ee059df71faafe880b22e8100d3c057d71ea46bb259ee9d11c4fc41f","mode":"sha256","digest":"17fb1e0d7d14df2d4f432cd8737db0a6bfa562e2a39c4a6df410fa424e96e57a"}
{"schema":"admiralagent-audit-1","seq":28,"time":"2026-10-01T12:45:37-0400","package_version":"0.1.0","event":"execute_variable","details":{"run_id":"run47502e032354","dataset":"ADSL","variable":"RACEN","status":"REVIEW","layers":[],"note":"needs human decision"},"prev":"17fb1e0d7d14df2d4f432cd8737db0a6bfa562e2a39c4a6df410fa424e96e57a","mode":"sha256","digest":"31dee5f1fdfbfac40935aa25c36999150916f9f18ed81e37fb48ec10b36b2f29"}
{"schema":"admiralagent-audit-1","seq":29,"time":"2026-10-01T12:45:37-0400","package_version":"0.1.0","event":"execute_variable","details":{"run_id":"run47502e032354","dataset":"ADSL","variable":"SAFFL","status":"REVIEW","layers":[],"note":"needs human decision"},"prev":"31dee5f1fdfbfac40935aa25c36999150916f9f18ed81e37fb48ec10b36b2f29","mode":"sha256","digest":"8d247c5081769e31de44a8df80c859460c29eeb4bba9cfd8de160c4a0849a6cf"}
{"schema":"admiralagent-audit-1","seq":30,"time":"2026-10-01T12:45:37-0400","package_version":"0.1.0","event":"execute_variable","details":{"run_id":"run47502e032354","dataset":"ADSL","variable":"ITTFL","status":"REVIEW","layers":[],"note":"needs human decision"},"prev":"8d247c5081769e31de44a8df80c859460c29eeb4bba9cfd8de160c4a0849a6cf","mode":"sha256","digest":"eab9947de23bbd479b727fe8ad1ff0e681c1ee6f17d6bfdbc3f4383c31fc22ee"}
{"schema":"admiralagent-audit-1","seq":31,"time":"2026-10-01T12:45:37-0400","package_version":"0.1.0","event":"execute_variable","details":{"run_id":"run47502e032354","dataset":"ADSL","variable":"EFFFL","status":"REVIEW","layers":[],"note":"needs human decision"},"prev":"eab9947de23bbd479b727fe8ad1ff0e681c1ee6f17d6bfdbc3f4383c31fc22ee","mode":"sha256","digest":"1d3a8aae1d25d0d631ee28ad70d1b9d1f0563d991fc91bc82f0d59579a38b598"}
{"schema":"admiralagent-audit-1","seq":32,"time":"2026-10-01T12:45:37-0400","package_version":"0.1.0","event":"execute_variable","details":{"run_id":"run47502e032354","dataset":"ADSL","variable":"COMP8FL","status":"REVIEW","layers":[],"note":"needs human decision"},"prev":"1d3a8aae1d25d0d631ee28ad70d1b9d1f0563d991fc91bc82f0d59579a38b598","mode":"sha256","digest":"9c151b744a8b2c3e5e95dbc80b66447b88badc04d52b3b28b83716551cc27aea"}
{"schema":"admiralagent-audit-1","seq":33,"time":"2026-10-01T12:45:37-0400","package_version":"0.1.0","event":"execute_variable","details":{"run_id":"run47502e032354","dataset":"ADSL","variable":"COMP16FL","status":"REVIEW","layers":[],"note":"needs human decision"},"prev":"9c151b744a8b2c3e5e95dbc80b66447b88badc04d52b3b28b83716551cc27aea","mode":"sha256","digest":"65ba715041c042837c2eb1a60d4f25d5c026d99caf2543391cdf8177519f0752"}
{"schema":"admiralagent-audit-1","seq":34,"time":"2026-10-01T12:45:37-0400","package_version":"0.1.0","event":"execute_variable","details":{"run_id":"run47502e032354","dataset":"ADSL","variable":"COMP24FL","status":"REVIEW","layers":[],"note":"needs human decision"},"prev":"65ba715041c042837c2eb1a60d4f25d5c026d99caf2543391cdf8177519f0752","mode":"sha256","digest":"7e995ab1d364399edc1c49c55b2d9dbbb6c0c9d5b27233e2cfbac6546e978a98"}
{"schema":"admiralagent-audit-1","seq":35,"time":"2026-10-01T12:45:37-0400","package_version":"0.1.0","event":"execute_variable","details":{"run_id":"run47502e032354","dataset":"ADSL","variable":"DISCONFL","status":"REVIEW","layers":[],"note":"needs human decision"},"prev":"7e995ab1d364399edc1c49c55b2d9dbbb6c0c9d5b27233e2cfbac6546e978a98","mode":"sha256","digest":"f193f5a1ee77bb2392619476b0531f93d1bee692f7f24fee8322174bed6670f0"}
{"schema":"admiralagent-audit-1","seq":36,"time":"2026-10-01T12:45:37-0400","package_version":"0.1.0","event":"execute_variable","details":{"run_id":"run47502e032354","dataset":"ADSL","variable":"DSRAEFL","status":"REVIEW","layers":[],"note":"needs human decision"},"prev":"f193f5a1ee77bb2392619476b0531f93d1bee692f7f24fee8322174bed6670f0","mode":"sha256","digest":"ac00b0aa31aab1429ccf2a9787295ccc6304d8d52196987ac3df48151ca6e152"}
{"schema":"admiralagent-audit-1","seq":37,"time":"2026-10-01T12:45:37-0400","package_version":"0.1.0","event":"execute_variable","details":{"run_id":"run47502e032354","dataset":"ADSL","variable":"BMIBL","status":"REVIEW","layers":[],"note":"needs human decision"},"prev":"ac00b0aa31aab1429ccf2a9787295ccc6304d8d52196987ac3df48151ca6e152","mode":"sha256","digest":"19504d5b1da4cd58a8678b66d0206188af6e92fc5629623858aaa0220a6034fb"}
{"schema":"admiralagent-audit-1","seq":38,"time":"2026-10-01T12:45:37-0400","package_version":"0.1.0","event":"execute_variable","details":{"run_id":"run47502e032354","dataset":"ADSL","variable":"HEIGHTBL","status":"REVIEW","layers":[],"note":"needs human decision"},"prev":"19504d5b1da4cd58a8678b66d0206188af6e92fc5629623858aaa0220a6034fb","mode":"sha256","digest":"f5fde4410b7dfbefd3c07de3471b18951593fb257c34d16ad7ab50bb412b3bc4"}
{"schema":"admiralagent-audit-1","seq":39,"time":"2026-10-01T12:45:37-0400","package_version":"0.1.0","event":"execute_variable","details":{"run_id":"run47502e032354","dataset":"ADSL","variable":"WEIGHTBL","status":"REVIEW","layers":[],"note":"needs human decision"},"prev":"f5fde4410b7dfbefd3c07de3471b18951593fb257c34d16ad7ab50bb412b3bc4","mode":"sha256","digest":"0ddbf78231f4cf4abadff65763d82ec8823385a4a332315760b2d6dba64e1862"}
{"schema":"admiralagent-audit-1","seq":40,"time":"2026-10-01T12:45:37-0400","package_version":"0.1.0","event":"execute_variable","details":{"run_id":"run47502e032354","dataset":"ADSL","variable":"EDUCLVL","status":"REVIEW","layers":[],"note":"needs human decision"},"prev":"0ddbf78231f4cf4abadff65763d82ec8823385a4a332315760b2d6dba64e1862","mode":"sha256","digest":"141f9b2a08166f2a089038b665b6ea346f56a8258b1b2a4616b8f4e29691c78d"}
{"schema":"admiralagent-audit-1","seq":41,"time":"2026-10-01T12:45:37-0400","package_version":"0.1.0","event":"execute_variable","details":{"run_id":"run47502e032354","dataset":"ADSL","variable":"DISONSDT","status":"REVIEW","layers":[],"note":"needs human decision"},"prev":"141f9b2a08166f2a089038b665b6ea346f56a8258b1b2a4616b8f4e29691c78d","mode":"sha256","digest":"642ffae344ac6cbb2f98264d7deb7e0c3cc3d058736619a00997c59042555f8f"}
{"schema":"admiralagent-audit-1","seq":42,"time":"2026-10-01T12:45:37-0400","package_version":"0.1.0","event":"execute_variable","details":{"run_id":"run47502e032354","dataset":"ADSL","variable":"DURDIS","status":"REVIEW","layers":[],"note":"needs human decision"},"prev":"642ffae344ac6cbb2f98264d7deb7e0c3cc3d058736619a00997c59042555f8f","mode":"sha256","digest":"89d44f01b5ac0062577002986da1f845f3245769e2fe91b7eda9a7c01cf82d99"}
{"schema":"admiralagent-audit-1","seq":43,"time":"2026-10-01T12:45:37-0400","package_version":"0.1.0","event":"execute_variable","details":{"run_id":"run47502e032354","dataset":"ADSL","variable":"DURDSGR1","status":"REVIEW","layers":[],"note":"needs human decision"},"prev":"89d44f01b5ac0062577002986da1f845f3245769e2fe91b7eda9a7c01cf82d99","mode":"sha256","digest":"832f744540655b0f3833bc606eaed99871714dd15e5ba46c27c1a57fd7d0c5d5"}
{"schema":"admiralagent-audit-1","seq":44,"time":"2026-10-01T12:45:37-0400","package_version":"0.1.0","event":"execute_variable","details":{"run_id":"run47502e032354","dataset":"ADSL","variable":"VISIT1DT","status":"REVIEW","layers":[],"note":"needs human decision"},"prev":"832f744540655b0f3833bc606eaed99871714dd15e5ba46c27c1a57fd7d0c5d5","mode":"sha256","digest":"e030dfeb948d7061b43812151382b1ae844c3a4ed76e79fbefcbf075c1598660"}
{"schema":"admiralagent-audit-1","seq":45,"time":"2026-10-01T12:45:37-0400","package_version":"0.1.0","event":"execute_variable","details":{"run_id":"run47502e032354","dataset":"ADSL","variable":"VISNUMEN","status":"REVIEW","layers":[],"note":"needs human decision"},"prev":"e030dfeb948d7061b43812151382b1ae844c3a4ed76e79fbefcbf075c1598660","mode":"sha256","digest":"3d726dac78da978c0c6c948b94c6522730ad1091b60c3d971133a9187674a3d2"}
{"schema":"admiralagent-audit-1","seq":46,"time":"2026-10-01T12:45:37-0400","package_version":"0.1.0","event":"execute_variable","details":{"run_id":"run47502e032354","dataset":"ADSL","variable":"DCDECOD","status":"REVIEW","layers":[],"note":"needs human decision"},"prev":"3d726dac78da978c0c6c948b94c6522730ad1091b60c3d971133a9187674a3d2","mode":"sha256","digest":"d571973cbdadc593e05316c3c31b47f72acc045fa0ee6abf0fcdd3e9916fd575"}
{"schema":"admiralagent-audit-1","seq":47,"time":"2026-10-01T12:45:37-0400","package_version":"0.1.0","event":"execute_variable","details":{"run_id":"run47502e032354","dataset":"ADSL","variable":"EOSSTT","status":"REVIEW","layers":[],"note":"needs human decision"},"prev":"d571973cbdadc593e05316c3c31b47f72acc045fa0ee6abf0fcdd3e9916fd575","mode":"sha256","digest":"56cc7717fe5978713f69af1435dd28cf0ec2e250e1b2bc93f70ec9493c5a4280"}
{"schema":"admiralagent-audit-1","seq":48,"time":"2026-10-01T12:45:37-0400","package_version":"0.1.0","event":"execute_variable","details":{"run_id":"run47502e032354","dataset":"ADSL","variable":"DCSREAS","status":"REVIEW","layers":[],"note":"needs human decision"},"prev":"56cc7717fe5978713f69af1435dd28cf0ec2e250e1b2bc93f70ec9493c5a4280","mode":"sha256","digest":"0eb84c12c9c2d0444029306523b1cd3f4f8ef3ebaf42c8ee19e0072925d13954"}
{"schema":"admiralagent-audit-1","seq":49,"time":"2026-10-01T12:45:37-0400","package_version":"0.1.0","event":"execute_variable","details":{"run_id":"run47502e032354","dataset":"ADSL","variable":"MMSETOT","status":"REVIEW","layers":[],"note":"needs human decision"},"prev":"0eb84c12c9c2d0444029306523b1cd3f4f8ef3ebaf42c8ee19e0072925d13954","mode":"sha256","digest":"82a0109a8004a40010312968f4ccfa1dde8e5e66b8c91f0b38482593425dfe8c"}
{"schema":"admiralagent-audit-1","seq":50,"time":"2026-10-01T12:45:37-0400","package_version":"0.1.0","event":"run_manifest","details":{"manifest_schema":"admiralagent-manifest-1","run_id":"run47502e032354","r_version":"R version 4.6.0 (2026-04-24 ucrt)","r_release":"4.6.0","platform":"x86_64-w64-mingw32","packages":{"admiral":"1.5.0.9011","metatools":"0.3.0","dplyr":"1.2.1","rlang":"1.3.0"},"package_version":"0.1.0","package_version_source":"fallback","package_version_reliable":false,"operator":"JaimeYan","operator_source":"session","source_data":[{"source":"base","rows":306,"cols":25,"columns":["STUDYID","DOMAIN","USUBJID","SUBJID","RFSTDTC","RFENDTC","RFXSTDTC","RFXENDTC","RFICDTC","RFPENDTC","DTHDTC","DTHFL","SITEID","AGE","AGEU","SEX","RACE","ETHNIC","ARMCD","ARM","ACTARMCD","ACTARM","COUNTRY","DMDTC","DMDY"],"digest":"xxhash64:6aeb909cce25d84b"},{"source":"ex","rows":591,"cols":17,"columns":["STUDYID","DOMAIN","USUBJID","EXSEQ","EXTRT","EXDOSE","EXDOSU","EXDOSFRM","EXDOSFRQ","EXROUTE","VISITNUM","VISIT","VISITDY","EXSTDTC","EXENDTC","EXSTDY","EXENDY"],"digest":"xxhash64:011a6b5c369aa767"},{"source":"vs","rows":29643,"cols":26,"columns":["STUDYID","DOMAIN","USUBJID","VSSEQ","VSTESTCD","VSTEST","VSPOS","VSORRES","VSORRESU","VSSTRESC","VSSTRESN","VSSTRESU","VSSTAT","VSLOC","VSBLFL","VISITNUM","VISIT","VISITDY","VSDTC","VSDY","VSTPT","VSTPTNUM","VSELTM","VSTPTREF","AVAL","PARAMCD"],"digest":"xxhash64:64dad7bc779481b8"},{"source":"ae","rows":1191,"cols":35,"columns":["STUDYID","DOMAIN","USUBJID","AESEQ","AESPID","AETERM","AELLT","AELLTCD","AEDECOD","AEPTCD","AEHLT","AEHLTCD","AEHLGT","AEHLGTCD","AEBODSYS","AEBDSYCD","AESOC","AESOCCD","AESEV","AESER","AEACN","AEREL","AEOUT","AESCAN","AESCONG","AESDISAB","AESDTH","AESHOSP","AESLIFE","AESOD","AEDTC","AESTDTC","AEENDTC","AESTDY","AEENDY"],"digest":"xxhash64:1ac146b719828a95"},{"source":"sv","rows":3559,"cols":8,"columns":["STUDYID","DOMAIN","USUBJID","VISITNUM","VISIT","VISITDY","SVSTDTC","SVENDTC"],"digest":"xxhash64:b84b26051ef5ae3d"},{"source":"ds","rows":596,"cols":13,"columns":["STUDYID","DOMAIN","USUBJID","DSSEQ","DSSPID","DSTERM","DSDECOD","DSCAT","VISITNUM","VISIT","DSDTC","DSSTDTC","DSSTDY"],"digest":"xxhash64:6ecf56d5f8d6e3d6"},{"source":"sc","rows":254,"cols":14,"columns":["STUDYID","DOMAIN","USUBJID","SCSEQ","SCTESTCD","SCTEST","SCCAT","SCORRES","SCORRESU","SCSTRESC","SCSTRESN","SCSTRESU","SCDTC","SCDY"],"digest":"xxhash64:87df85a85d620821"},{"source":"mh","rows":1818,"cols":19,"columns":["STUDYID","DOMAIN","USUBJID","MHSEQ","MHSPID","MHTERM","MHLLT","MHDECOD","MHHLT","MHHLGT","MHCAT","MHBODSYS","MHSEV","VISITNUM","VISIT","VISITDY","MHDTC","MHSTDTC","MHDY"],"digest":"xxhash64:c186fa80a06f46e2"},{"source":"qs","rows":121749,"cols":20,"columns":["STUDYID","DOMAIN","USUBJID","QSSEQ","QSTESTCD","QSTEST","QSCAT","QSSCAT","QSORRES","QSORRESU","QSSTRESC","QSSTRESN","QSSTRESU","QSBLFL","QSDRVFL","VISITNUM","VISIT","VISITDY","QSDTC","QSDY"],"digest":"xxhash64:9e99f89f1f2e4101"}],"source_data_digest":"sources:a43672e4126d6213","ir_hash":"58d2eddc","backend":null,"model":null,"seed":null,"temperature":null,"prompt_digest":null,"gate_enforced":true,"gate_id":null},"prev":"82a0109a8004a40010312968f4ccfa1dde8e5e66b8c91f0b38482593425dfe8c","mode":"sha256","digest":"6ec267a1451d93e7992551eb2f3909d3184ce2ddee91ea3a29b4e4e4c6ccecfd"}
