"variable","check","status","details"
"STUDYID","not_all_na","PASS",""
"USUBJID","not_all_na","PASS",""
"SUBJID","not_all_na","PASS",""
"SITEID","not_all_na","PASS",""
"SITEGR1","needs_human","MANUAL","routed to human review"
"ARM","not_all_na","PASS",""
"TRT01P","not_all_na","PASS",""
"TRT01PN","needs_human","MANUAL","routed to human review"
"TRT01A","not_all_na","PASS",""
"TRT01AN","needs_human","MANUAL","routed to human review"
"TRTSDT","needs_human","MANUAL","routed to human review"
"TRTEDT","needs_human","MANUAL","routed to human review"
"TRTDURD","needs_human","MANUAL","routed to human review"
"AVGDD","needs_human","MANUAL","routed to human review"
"CUMDOSE","needs_human","MANUAL","routed to human review"
"AGE","not_all_na","PASS",""
"AGEGR1","needs_human","MANUAL","routed to human review"
"AGEGR1N","needs_human","MANUAL","routed to human review"
"AGEU","not_all_na","PASS",""
"RACE","not_all_na","PASS",""
"RACEN","needs_human","MANUAL","routed to human review"
"SEX","not_all_na","PASS",""
"ETHNIC","not_all_na","PASS",""
"SAFFL","needs_human","MANUAL","routed to human review"
"ITTFL","needs_human","MANUAL","routed to human review"
"EFFFL","needs_human","MANUAL","routed to human review"
"COMP8FL","needs_human","MANUAL","routed to human review"
"COMP16FL","needs_human","MANUAL","routed to human review"
"COMP24FL","needs_human","MANUAL","routed to human review"
"DISCONFL","needs_human","MANUAL","routed to human review"
"DSRAEFL","needs_human","MANUAL","routed to human review"
"DTHFL","not_all_na","PASS",""
"BMIBL","needs_human","MANUAL","routed to human review"
"BMIBLGR1","not_all_na","FAIL","variable not present"
"BMIBLGR1","key_uniqueness","PASS",""
"HEIGHTBL","needs_human","MANUAL","routed to human review"
"WEIGHTBL","needs_human","MANUAL","routed to human review"
"EDUCLVL","needs_human","MANUAL","routed to human review"
"DISONSDT","needs_human","MANUAL","routed to human review"
"DURDIS","needs_human","MANUAL","routed to human review"
"DURDSGR1","needs_human","MANUAL","routed to human review"
"VISIT1DT","needs_human","MANUAL","routed to human review"
"RFSTDTC","not_all_na","PASS",""
"RFENDTC","not_all_na","PASS",""
"VISNUMEN","needs_human","MANUAL","routed to human review"
"RFENDT","imputation_flag","PASS",""
"RFENDT","not_all_na","PASS",""
"DCDECOD","needs_human","MANUAL","routed to human review"
"EOSSTT","needs_human","MANUAL","routed to human review"
"DCSREAS","needs_human","MANUAL","routed to human review"
"MMSETOT","needs_human","MANUAL","routed to human review"
