"variable","check","status","details"
"STUDYID","not_all_na","PASS",""
"SUBJID","not_all_na","FAIL","variable not present"
"USUBJID","not_all_na","PASS",""
"TRTP","not_all_na","FAIL","variable not present"
"TRTPN","not_all_na","FAIL","variable not present"
"TRTA","not_all_na","FAIL","variable not present"
"TRTAN","not_all_na","FAIL","variable not present"
"TRTSDT","not_all_na","FAIL","variable not present"
"TRTEDT","not_all_na","FAIL","variable not present"
"AGE","not_all_na","FAIL","variable not present"
"AGEGR1","not_all_na","FAIL","variable not present"
"AGEGR1N","not_all_na","FAIL","variable not present"
"RACE","not_all_na","FAIL","variable not present"
"RACEN","not_all_na","FAIL","variable not present"
"SEX","not_all_na","FAIL","variable not present"
"COMP24FL","not_all_na","FAIL","variable not present"
"DSRAEFL","not_all_na","FAIL","variable not present"
"SAFFL","not_all_na","FAIL","variable not present"
"AVISIT","needs_human","MANUAL","routed to human review"
"AVISITN","needs_human","MANUAL","routed to human review"
"ADY","not_all_na","PASS",""
"ADT","not_all_na","PASS",""
"VISIT","not_all_na","PASS",""
"VISITNUM","not_all_na","PASS",""
"PARAM","needs_human","MANUAL","routed to human review"
"PARAMCD","not_all_na","PASS",""
"PARAMN","needs_human","MANUAL","routed to human review"
"PARCAT1","needs_human","MANUAL","routed to human review"
"AVAL","not_all_na","PASS",""
"BASE","not_all_na","PASS",""
"CHG","not_all_na","PASS",""
"A1LO","not_all_na","PASS",""
"A1HI","not_all_na","PASS",""
"R2A1LO","needs_human","MANUAL","routed to human review"
"R2A1HI","needs_human","MANUAL","routed to human review"
"BR2A1LO","needs_human","MANUAL","routed to human review"
"BR2A1HI","needs_human","MANUAL","routed to human review"
"ANL01FL","needs_human","MANUAL","routed to human review"
"ALBTRVAL","needs_human","MANUAL","routed to human review"
"ANRIND","needs_human","MANUAL","routed to human review"
"BNRIND","needs_human","MANUAL","routed to human review"
"ABLFL","not_all_na","PASS",""
"AENTMTFL","needs_human","MANUAL","routed to human review"
"LBSEQ","not_all_na","PASS",""
"LBNRIND","not_all_na","PASS",""
"LBSTRESN","not_all_na","PASS",""
