"variable","check","status","details"
"STUDYID","not_all_na","PASS",""
"SITEID","not_all_na","FAIL","variable not present"
"USUBJID","not_all_na","PASS",""
"TRTA","not_all_na","FAIL","variable not present"
"TRTAN","not_all_na","FAIL","variable not present"
"AGE","not_all_na","FAIL","variable not present"
"AGEGR1","not_all_na","FAIL","variable not present"
"AGEGR1N","not_all_na","FAIL","variable not present"
"RACE","not_all_na","FAIL","variable not present"
"RACEN","not_all_na","FAIL","variable not present"
"SEX","not_all_na","FAIL","variable not present"
"SAFFL","not_all_na","FAIL","variable not present"
"TRTSDT","not_all_na","FAIL","variable not present"
"TRTEDT","not_all_na","FAIL","variable not present"
"ASTDT","needs_human","MANUAL","routed to human review"
"ASTDTF","needs_human","MANUAL","routed to human review"
"ASTDY","needs_human","MANUAL","routed to human review"
"AENDT","needs_human","MANUAL","routed to human review"
"AENDY","needs_human","MANUAL","routed to human review"
"ADURN","needs_human","MANUAL","routed to human review"
"ADURU","needs_human","MANUAL","routed to human review"
"AETERM","not_all_na","PASS",""
"AELLT","not_all_na","PASS",""
"AELLTCD","not_all_na","FAIL","all values missing"
"AEDECOD","not_all_na","PASS",""
"AEPTCD","not_all_na","FAIL","all values missing"
"AEHLT","not_all_na","PASS",""
"AEHLTCD","not_all_na","FAIL","all values missing"
"AEHLGT","not_all_na","PASS",""
"AEHLGTCD","not_all_na","FAIL","all values missing"
"AEBODSYS","not_all_na","PASS",""
"AESOC","not_all_na","PASS",""
"AESOCCD","not_all_na","FAIL","all values missing"
"AESEV","not_all_na","PASS",""
"AESER","not_all_na","PASS",""
"AESCAN","not_all_na","PASS",""
"AESCONG","not_all_na","PASS",""
"AESDISAB","not_all_na","PASS",""
"AESDTH","not_all_na","PASS",""
"AESHOSP","not_all_na","PASS",""
"AESLIFE","not_all_na","PASS",""
"AESOD","not_all_na","PASS",""
"AEREL","not_all_na","PASS",""
"AEACN","not_all_na","PASS",""
"AEOUT","not_all_na","PASS",""
"AESEQ","not_all_na","PASS",""
"TRTEMFL","needs_human","MANUAL","routed to human review"
"AOCCFL","needs_human","MANUAL","routed to human review"
"AOCCSFL","needs_human","MANUAL","routed to human review"
"AOCCPFL","needs_human","MANUAL","routed to human review"
"AOCC02FL","needs_human","MANUAL","routed to human review"
"AOCC03FL","needs_human","MANUAL","routed to human review"
"AOCC04FL","needs_human","MANUAL","routed to human review"
"CQ01NAM","needs_human","MANUAL","routed to human review"
"AOCC01FL","needs_human","MANUAL","routed to human review"
