{
  "artifact": "adae__aoccpfl__c978bbbd.R",
  "package_version": "0.1.0",
  "backend": "rules",
  "model": null,
  "ir": [
    {
      "dataset": "ADAE",
      "variable": "AOCCPFL",
      "steps": [],
      "spec_origin": "Subset to TRTEMFL='Y' and sort by Subject (USUBJID), System Organ Class (AEBODSYS), Preferred Term (AEDECOD), Start Date (ASTDT), and Sequence Number (AESEQ) and flag the first record (set AOCCPFL=?Y?) within each Subject, SOC, and PT",
      "confidence": 1,
      "needs_human": true,
      "rationale": "rule: no matching pattern, routed to human review"
    }
  ],
  "ir_hash": "650bcc5b",
  "code_digest": "83c35c715f6ade53dae887c56bd8f850c5a77eedbb9ed0b744108a79fa14dc68",
  "gate": null,
  "release_grade": "ungated-draft",
  "gate_enforced": null,
  "validation": null,
  "created_at": "2026-10-01T20:05:21-0400",
  "disclaimer": "DRAFT generated code; human review required before regulated use"
}
