{
  "artifact": "adae__aoccsfl__c978bbbd.R",
  "package_version": "0.1.0",
  "backend": "rules",
  "model": null,
  "ir": [
    {
      "dataset": "ADAE",
      "variable": "AOCCSFL",
      "steps": [],
      "spec_origin": "Subset to TRTEMFL='Y' and sort by Subject (USUBJID), System Organ Class (AEBODSYS), Start Date (ASTDT), and Sequence Number (AESEQ) and flag the first record (set AOCCSFL=?Y?) within each Subject and SOC",
      "confidence": 1,
      "needs_human": true,
      "rationale": "rule: no matching pattern, routed to human review"
    }
  ],
  "ir_hash": "60b3a9a3",
  "code_digest": "3b373213dcd39a9b398f5efff130ca111442c3243cff519da66927d9e668c4a5",
  "gate": null,
  "release_grade": "ungated-draft",
  "gate_enforced": null,
  "validation": null,
  "created_at": "2026-10-01T20:05:21-0400",
  "disclaimer": "DRAFT generated code; human review required before regulated use"
}
