{
  "artifact": "adae__aocc04fl__c978bbbd.R",
  "package_version": "0.1.0",
  "backend": "rules",
  "model": null,
  "ir": [
    {
      "dataset": "ADAE",
      "variable": "AOCC04FL",
      "steps": [],
      "spec_origin": "Subset to TRTEMFL='Y' and AESER='Y' and sort by Subject (USUBJID), System Organ Class (AEBODSYS), Preferred Term (AEDECOD), Start Date (ASTDT), and Sequence Number (AESEQ) and flag the first record (set AOCC04FL=?Y?) within each Subject, SOC, and PT",
      "confidence": 1,
      "needs_human": true,
      "rationale": "rule: no matching pattern, routed to human review"
    }
  ],
  "ir_hash": "a33b77ee",
  "code_digest": "24dbc41f0f9eda4de0d2870351f323861c7400e9919e0e16b23ca349b85cb1f0",
  "gate": null,
  "release_grade": "ungated-draft",
  "gate_enforced": null,
  "validation": null,
  "created_at": "2026-10-01T20:05:21-0400",
  "disclaimer": "DRAFT generated code; human review required before regulated use"
}
