{
  "artifact": "adae__aocc02fl__c978bbbd.R",
  "package_version": "0.1.0",
  "backend": "rules",
  "model": null,
  "ir": [
    {
      "dataset": "ADAE",
      "variable": "AOCC02FL",
      "steps": [],
      "spec_origin": "Subset to TRTEMFL='Y' and AESER='Y' and sort by Subject (USUBJID), Start Date (ASTDT), and Sequence Number (AESEQ) and flag the first record (set AOCC02FL=?Y?) within each Subject",
      "confidence": 1,
      "needs_human": true,
      "rationale": "rule: no matching pattern, routed to human review"
    }
  ],
  "ir_hash": "6b1b6c4d",
  "code_digest": "51f2cbcdb2a938d45c4119f0de4d1dc91015e7be25a8428667664c8a9a5cbb90",
  "gate": null,
  "release_grade": "ungated-draft",
  "gate_enforced": null,
  "validation": null,
  "created_at": "2026-10-01T17:47:12-0400",
  "disclaimer": "DRAFT generated code; human review required before regulated use"
}
