{
  "artifact": "adae__program__07fd8680.R",
  "package_version": "0.1.0",
  "backend": "llm-deepseek-consensus3",
  "model": "deepseek-chat",
  "ir": [
    {
      "dataset": "ADAE",
      "variable": "SITEID",
      "steps": [
        {
          "layer": "merge_var",
          "args": {
            "by_vars": [
              "STUDYID",
              "USUBJID"
            ],
            "dataset_add": "adsl",
            "mode": "first",
            "source": "SITEID",
            "target": "SITEID"
          }
        }
      ],
      "spec_origin": "ADSL.SITEID",
      "confidence": 0.9,
      "needs_human": false,
      "rationale": "Value comes from ADSL, a different dataset than ADAE, so merge_var from adsl."
    },
    {
      "dataset": "ADAE",
      "variable": "TRTA",
      "steps": [
        {
          "layer": "merge_var",
          "args": {
            "by_vars": [
              "STUDYID",
              "USUBJID"
            ],
            "dataset_add": "adsl",
            "mode": "first",
            "source": "TRT01A",
            "target": "TRTA"
          }
        }
      ],
      "spec_origin": "ADSL.TRT01A",
      "confidence": 0.9,
      "needs_human": false,
      "rationale": "Actual treatment pulled from ADSL.TRT01A into ADAE."
    },
    {
      "dataset": "ADAE",
      "variable": "TRTAN",
      "steps": [
        {
          "layer": "merge_var",
          "args": {
            "by_vars": [
              "STUDYID",
              "USUBJID"
            ],
            "dataset_add": "adsl",
            "mode": "first",
            "source": "TRT01AN",
            "target": "TRTAN"
          }
        }
      ],
      "spec_origin": "ADSL.TRT01AN",
      "confidence": 0.9,
      "needs_human": false,
      "rationale": "Numeric actual treatment pulled from ADSL.TRT01AN into ADAE."
    },
    {
      "dataset": "ADAE",
      "variable": "AGE",
      "steps": [
        {
          "layer": "merge_var",
          "args": {
            "by_vars": [
              "STUDYID",
              "USUBJID"
            ],
            "dataset_add": "adsl",
            "mode": "first",
            "source": "AGE",
            "target": "AGE"
          }
        }
      ],
      "spec_origin": "ADSL.AGE",
      "confidence": 0.9,
      "needs_human": false,
      "rationale": "Age pulled from ADSL into ADAE via merge_var."
    },
    {
      "dataset": "ADAE",
      "variable": "AGEGR1",
      "steps": [
        {
          "layer": "merge_var",
          "args": {
            "by_vars": [
              "STUDYID",
              "USUBJID"
            ],
            "dataset_add": "adsl",
            "mode": "first",
            "source": "AGEGR1",
            "target": "AGEGR1"
          }
        }
      ],
      "spec_origin": "ADSL.AGEGR1",
      "confidence": 0.9,
      "needs_human": false,
      "rationale": "Pooled age group pulled from ADSL into ADAE via merge_var."
    },
    {
      "dataset": "ADAE",
      "variable": "AGEGR1N",
      "steps": [
        {
          "layer": "merge_var",
          "args": {
            "by_vars": [
              "STUDYID",
              "USUBJID"
            ],
            "dataset_add": "adsl",
            "mode": "first",
            "source": "AGEGR1N",
            "target": "AGEGR1N"
          }
        }
      ],
      "spec_origin": "ADSL.AGEGR1N",
      "confidence": 0.9,
      "needs_human": false,
      "rationale": "Numeric pooled age group pulled from ADSL into ADAE via merge_var."
    },
    {
      "dataset": "ADAE",
      "variable": "RACE",
      "steps": [
        {
          "layer": "merge_var",
          "args": {
            "by_vars": [
              "STUDYID",
              "USUBJID"
            ],
            "dataset_add": "adsl",
            "mode": "first",
            "source": "RACE",
            "target": "RACE"
          }
        }
      ],
      "spec_origin": "ADSL.RACE",
      "confidence": 0.9,
      "needs_human": false,
      "rationale": "Race pulled from ADSL into ADAE via merge_var."
    },
    {
      "dataset": "ADAE",
      "variable": "RACEN",
      "steps": [
        {
          "layer": "merge_var",
          "args": {
            "by_vars": [
              "STUDYID",
              "USUBJID"
            ],
            "dataset_add": "adsl",
            "mode": "first",
            "source": "RACEN",
            "target": "RACEN"
          }
        }
      ],
      "spec_origin": "ADSL.RACEN",
      "confidence": 0.9,
      "needs_human": false,
      "rationale": "Numeric race pulled from ADSL into ADAE via merge_var."
    },
    {
      "dataset": "ADAE",
      "variable": "SEX",
      "steps": [
        {
          "layer": "merge_var",
          "args": {
            "by_vars": [
              "STUDYID",
              "USUBJID"
            ],
            "dataset_add": "adsl",
            "mode": "first",
            "source": "SEX",
            "target": "SEX"
          }
        }
      ],
      "spec_origin": "ADSL.SEX",
      "confidence": 0.9,
      "needs_human": false,
      "rationale": "Sex pulled from ADSL into ADAE via merge_var."
    },
    {
      "dataset": "ADAE",
      "variable": "SAFFL",
      "steps": [
        {
          "layer": "merge_var",
          "args": {
            "by_vars": [
              "STUDYID",
              "USUBJID"
            ],
            "dataset_add": "adsl",
            "mode": "first",
            "source": "SAFFL",
            "target": "SAFFL"
          }
        }
      ],
      "spec_origin": "ADSL.SAFFL",
      "confidence": 0.9,
      "needs_human": false,
      "rationale": "Safety population flag pulled from ADSL into ADAE via merge_var."
    },
    {
      "dataset": "ADAE",
      "variable": "TRTSDT",
      "steps": [
        {
          "layer": "merge_var",
          "args": {
            "by_vars": [
              "STUDYID",
              "USUBJID"
            ],
            "dataset_add": "adsl",
            "mode": "first",
            "source": "TRTSDT",
            "target": "TRTSDT"
          }
        }
      ],
      "spec_origin": "ADSL.TRTSDT",
      "confidence": 0.9,
      "needs_human": false,
      "rationale": "First exposure date pulled from ADSL into ADAE via merge_var."
    },
    {
      "dataset": "ADAE",
      "variable": "TRTEDT",
      "steps": [
        {
          "layer": "merge_var",
          "args": {
            "by_vars": [
              "STUDYID",
              "USUBJID"
            ],
            "dataset_add": "adsl",
            "mode": "first",
            "source": "TRTEDT",
            "target": "TRTEDT"
          }
        }
      ],
      "spec_origin": "ADSL.TRTEDT",
      "confidence": 0.9,
      "needs_human": false,
      "rationale": "Last exposure date pulled from ADSL into ADAE via merge_var."
    }
  ],
  "ir_hash": "07fd8680",
  "code_digest": "e7a3c9f0b0a13d951975455e90e38d6a06eea6f91df0d2552b782b24b7d9f149",
  "gate": null,
  "release_grade": "ungated-draft",
  "gate_enforced": false,
  "validation": null,
  "created_at": "2026-10-01T20:05:29-0400",
  "disclaimer": "DRAFT generated code; human review required before regulated use"
}
