{
  "artifact": "adlbc__program__54910556.R",
  "package_version": "0.1.0",
  "backend": "llm-deepseek-consensus3",
  "model": "deepseek-chat",
  "ir": [
    {
      "dataset": "ADLBC",
      "variable": "TRTP",
      "steps": [
        {
          "layer": "merge_var",
          "args": {
            "by_vars": [
              "STUDYID",
              "USUBJID"
            ],
            "dataset_add": "adsl",
            "mode": "first",
            "source": "TRT01P",
            "target": "TRTP"
          }
        }
      ],
      "spec_origin": "ADSL.TRT01P",
      "confidence": 0.95,
      "needs_human": false,
      "rationale": "Pull planned treatment from ADSL into ADLBC; ADSL is a different dataset than ADLBC so merge_var applies."
    },
    {
      "dataset": "ADLBC",
      "variable": "TRTPN",
      "steps": [
        {
          "layer": "merge_var",
          "args": {
            "by_vars": [
              "STUDYID",
              "USUBJID"
            ],
            "dataset_add": "adsl",
            "mode": "first",
            "source": "TRT01PN",
            "target": "TRTPN"
          }
        }
      ],
      "spec_origin": "ADSL.TRT01PN",
      "confidence": 0.95,
      "needs_human": false,
      "rationale": "Pull planned treatment number from ADSL into ADLBC."
    },
    {
      "dataset": "ADLBC",
      "variable": "TRTA",
      "steps": [
        {
          "layer": "merge_var",
          "args": {
            "by_vars": [
              "STUDYID",
              "USUBJID"
            ],
            "dataset_add": "adsl",
            "mode": "first",
            "source": "TRT01A",
            "target": "TRTA"
          }
        }
      ],
      "spec_origin": "ADSL.TRT01A",
      "confidence": 0.95,
      "needs_human": false,
      "rationale": "Pull actual treatment from ADSL into ADLBC."
    },
    {
      "dataset": "ADLBC",
      "variable": "TRTAN",
      "steps": [
        {
          "layer": "merge_var",
          "args": {
            "by_vars": [
              "STUDYID",
              "USUBJID"
            ],
            "dataset_add": "adsl",
            "mode": "first",
            "source": "TRT01AN",
            "target": "TRTAN"
          }
        }
      ],
      "spec_origin": "ADSL.TRT01AN",
      "confidence": 0.95,
      "needs_human": false,
      "rationale": "Pull actual treatment number from ADSL into ADLBC."
    },
    {
      "dataset": "ADLBC",
      "variable": "AVISIT",
      "steps": [],
      "spec_origin": "Last observed value for this lab parameter during treatment phase: 'Y' if VISITNUM=12, if subject discontinues prior to VISIT 12, then this variable is set to 'Y' if this is the last assessment of this analyte for the subject",
      "confidence": 0,
      "needs_human": true,
      "rationale": "Derivation text is contradictory/ambiguous: labels a visit but describes a 'Y' flag logic with discontinuation handling. Not expressible with the layer vocabulary."
    },
    {
      "dataset": "ADLBC",
      "variable": "ADY",
      "steps": [
        {
          "layer": "assign",
          "args": {
            "from": "LBDY",
            "target": "ADY"
          }
        }
      ],
      "spec_origin": "LB.LBDY",
      "confidence": 0.95,
      "needs_human": false,
      "rationale": "ADLBC is built from LB, so LBDY is already present in the target base; direct copy."
    },
    {
      "dataset": "ADLBC",
      "variable": "ADT",
      "steps": [
        {
          "layer": "impute_dtc",
          "args": {
            "date_imputation": "first",
            "dtc": "LBDTC",
            "highest_imputation": "D",
            "output_class": "dt",
            "target": "ADT"
          }
        }
      ],
      "spec_origin": "LB.LBDTC",
      "confidence": 0.75,
      "needs_human": false,
      "rationale": "Convert LB.LBDTC character date to numeric ADT date. Imputation defaults applied since spec does not specify; date_imputation 'first' with highest_imputation 'D'."
    },
    {
      "dataset": "ADLBC",
      "variable": "PARAM",
      "steps": [],
      "spec_origin": "Concatenated LB.LBTEST, '(', LB.LBSTRESU and ')'",
      "confidence": 0,
      "needs_human": true,
      "rationale": "Concatenation of LBTEST, literal '(', LBSTRESU and ')' requires string paste; not expressible with the constrained formula (arithmetic only, no function calls)."
    },
    {
      "dataset": "ADLBC",
      "variable": "PARAMN",
      "steps": [],
      "spec_origin": "Numeric code for Parameter",
      "confidence": 0,
      "needs_human": true,
      "rationale": "Numeric code for Parameter requires an external codelist mapping between PARAMCD/PARAM and the numeric code; no codelist referenced in spec and mapping is ambiguous."
    },
    {
      "dataset": "ADLBC",
      "variable": "BASE",
      "steps": [
        {
          "layer": "assign",
          "args": {
            "from": "LBSTNRHI",
            "target": "BASE"
          }
        }
      ],
      "spec_origin": "LB.LBSTNRHI",
      "confidence": 0.8,
      "needs_human": false,
      "rationale": "ADLBC is built from LB, so LBSTNRHI is present in the target base; direct copy. Note spec maps the normal high range value to BASE, which is unusual but taken verbatim."
    },
    {
      "dataset": "ADLBC",
      "variable": "CHG",
      "steps": [
        {
          "layer": "compute_var",
          "args": {
            "formula": "AVAL - BASE",
            "target": "CHG"
          }
        }
      ],
      "spec_origin": "AVAL - BASE",
      "confidence": 0.9,
      "needs_human": false,
      "rationale": "Column-wise arithmetic using existing AVAL and BASE columns in the BDS dataset."
    },
    {
      "dataset": "ADLBC",
      "variable": "A1LO",
      "steps": [
        {
          "layer": "assign",
          "args": {
            "from": "LBSTNRLO",
            "target": "A1LO"
          }
        }
      ],
      "spec_origin": "LB.LBSTNRLO",
      "confidence": 0.9,
      "needs_human": false,
      "rationale": "ADLBC is built from LB, so LBSTNRLO is present in the target base; direct copy."
    }
  ],
  "ir_hash": "54910556",
  "code_digest": "993febc7435b5ae8dc4cefac097a92753f2270eec3ce89a8eaf525ea0ab3bad8",
  "gate": null,
  "release_grade": "ungated-draft",
  "gate_enforced": false,
  "validation": null,
  "created_at": "2026-10-01T20:05:39-0400",
  "disclaimer": "DRAFT generated code; human review required before regulated use"
}
