{"id":"eval_001","dataset":"ADSL","spec_row":{"variable":"TRTSDTM","label":"Date of First Study Treatment","type":"datetime","origin":"Derived","derivation":"Earliest non-missing EXSTDTC among EX records with EXDOSE > 0; impute missing date parts to first","source_dataset":"ex","source_variable":"EXSTDTC"},"expected_layers":["impute_dtc","merge_var"],"expected_needs_human":false,"note":"real finding round 1: impute EXSTDTM on ex, then merge first EX record with EXDOSE > 0"}
{"id":"eval_002","dataset":"ADSL","spec_row":{"variable":"TRTSDTM","label":"Date of First Study Treatment","type":"datetime","origin":"Derived","derivation":"Date of first study treatment, imputed from DM RFSTDTC","source_dataset":"dm","source_variable":"RFSTDTC"},"expected_layers":["impute_dtc"],"expected_needs_human":false,"note":"real finding round 1: pilot convention, single impute_dtc with dtc=RFSTDTC, date_imputation=first"}
{"id":"eval_003","dataset":"ADSL","spec_row":{"variable":"TRTEDTM","label":"Date of Last Study Treatment","type":"datetime","origin":"Derived","derivation":"Date of last study treatment, imputed from DM RFENDTC","source_dataset":"dm","source_variable":"RFENDTC"},"expected_layers":["impute_dtc"],"expected_needs_human":false,"note":"real finding round 1: single impute_dtc with dtc=RFENDTC, date_imputation=last"}
{"id":"eval_004","dataset":"ADSL","spec_row":{"variable":"AGE","label":"Age","type":"integer","origin":"Derived","derivation":"Age in years between BRTHDT and TRTSDT, truncated (do not round up before birthday)","source_dataset":null,"source_variable":null},"expected_layers":["duration"],"expected_needs_human":false,"note":"real finding round 1: duration years trunc_out=TRUE add_one=FALSE"}
{"id":"eval_005","dataset":"ADSL","spec_row":{"variable":"AGEGR1","label":"Age Group","type":"text","origin":"Assigned","derivation":"Age group categories from AGE: <18, 18-64, >=65","source_dataset":null,"source_variable":null},"expected_layers":[],"expected_needs_human":true,"note":"real finding round 1: categorisation breakpoints are a human decision, abstain"}
{"id":"eval_006","dataset":"ADSL","spec_row":{"variable":"STUDYID","label":"Study Identifier","type":"text","origin":"CRF","derivation":"Copied directly from DM.STUDYID","source_dataset":"dm","source_variable":"STUDYID"},"expected_layers":["assign"],"expected_needs_human":false,"note":"real finding round 1: plain CRF copy via assign from STUDYID"}
{"id":"eval_007","dataset":"ADSL","spec_row":{"variable":"BMIBL","label":"Body Mass Index at Baseline","type":"float","origin":"Derived","derivation":"Body mass index at baseline = WEIGHT / (HEIGHT/100)^2 in kg/m2 from VS PARAMCD HEIGHT and WEIGHT","source_dataset":"vs","source_variable":null},"expected_layers":["compute_param","merge_var"],"expected_needs_human":false,"note":"real finding round 1: compute_param BMI on vs by STUDYID+USUBJID, then merge_var into ADSL"}
{"id":"eval_008","dataset":"ADSL","spec_row":{"variable":"RACEN","label":"Race (N)","type":"integer","origin":"Derived","derivation":"Numeric race code derived from RACE using the RACE codelist","source_dataset":null,"source_variable":null},"expected_layers":["codelist_var"],"expected_needs_human":false,"note":"real finding round 1: codelist_var from RACE via metacore codelist"}
{"id":"eval_009","dataset":"ADSL","spec_row":{"variable":"TRTEDTM","label":"Date of Last Study Treatment","type":"datetime","origin":"Derived","derivation":"Latest non-missing EXENDTC among EX records with EXDOSE > 0; impute missing date parts to last","source_dataset":"ex","source_variable":"EXENDTC"},"expected_layers":["impute_dtc","merge_var"],"expected_needs_human":false,"note":"mirror of eval_001 for the last-dose chain: impute last on ex, then merge last record"}
{"id":"eval_010","dataset":"ADSL","spec_row":{"variable":"USUBJID","label":"Unique Subject Identifier","type":"text","origin":"CRF","derivation":"Copied directly from DM.USUBJID","source_dataset":"dm","source_variable":"USUBJID"},"expected_layers":["assign"],"expected_needs_human":false,"note":"plain CRF copy via assign"}
{"id":"eval_011","dataset":"ADSL","spec_row":{"variable":"SEX","label":"Sex","type":"text","origin":"CRF","derivation":"Sex taken directly from DM.SEX","source_dataset":"dm","source_variable":"SEX"},"expected_layers":["assign"],"expected_needs_human":false,"note":"plain CRF copy phrased as taken directly from; assign from SEX"}
{"id":"eval_012","dataset":"ADSL","spec_row":{"variable":"TRT01P","label":"Planned Treatment","type":"text","origin":"Assigned","derivation":"Planned treatment, copied from ARM in DM","source_dataset":"dm","source_variable":"ARM"},"expected_layers":["assign"],"expected_needs_human":false,"note":"mock spec parity: copied from ARM, assign from source_variable ARM"}
{"id":"eval_013","dataset":"ADSL","spec_row":{"variable":"SAFFL","label":"Safety Population Flag","type":"text","origin":"Assigned","derivation":"Safety population flag defined as per SAP section 6.1","source_dataset":null,"source_variable":null},"expected_layers":[],"expected_needs_human":true,"note":"abstention: vague as-per-SAP text, no closed-vocabulary mapping possible"}
{"id":"eval_014","dataset":"ADSL","spec_row":{"variable":"SITECST","label":"Standardised Site Cost Code","type":"text","origin":"Assigned","derivation":"Standardised site cost code per external pricing file maintained by finance","source_dataset":null,"source_variable":null},"expected_layers":[],"expected_needs_human":true,"note":"abstention: external lookup file outside the closed vocabulary"}
{"id":"eval_015","dataset":"ADSL","spec_row":{"variable":"ASTDY","label":"Study Day of First Adverse Event","type":"integer","origin":"Derived","derivation":"Study day of first adverse event relative to TRTSDT","source_dataset":null,"source_variable":null},"expected_layers":[],"expected_needs_human":true,"note":"abstention: relative-day arithmetic not in the layer vocabulary"}
{"id":"eval_016","dataset":"ADSL","spec_row":{"variable":"SITEID","label":"Study Site Identifier","type":"text","origin":"CRF","derivation":"Copied directly from DM.SITEID","source_dataset":"dm","source_variable":"SITEID"},"expected_layers":["assign"],"expected_needs_human":false,"note":"plain CRF copy via assign"}
{"id":"eval_017","dataset":"ADSL","spec_row":{"variable":"BMIBL","label":"Body Mass Index","type":"float","origin":"Derived","derivation":"Body mass index = WEIGHT / (HEIGHT/100)^2 in kg/m2 from VS PARAMCD HEIGHT and WEIGHT","source_dataset":"vs","source_variable":null},"expected_layers":["compute_param","merge_var"],"expected_needs_human":false,"note":"BMI text variant without the baseline keyword; layer chain unchanged"}
{"id":"eval_018","dataset":"ADSL","spec_row":{"variable":"TRTDURD","label":"Treatment Duration in Days","type":"integer","origin":"Derived","derivation":"Treatment duration in days between TRTSDT and TRTEDT","source_dataset":null,"source_variable":null},"expected_layers":[],"expected_needs_human":true,"note":"documented rules gap: duration heuristic only covers years patterns, days abstains"}
{"id":"eval_019","dataset":"ADVS","spec_row":{"variable":"PARAMCD","label":"Parameter Code","type":"text","origin":"Derived","derivation":"PARAMCD derived from VSTESTCD via VS test lookup table","source_dataset":"vs","source_variable":"VSTESTCD"},"expected_layers":["lookup_join"],"expected_needs_human":false,"note":"gap closed by BDS extension: lookup keyword + VSTESTCD source_variable -> lookup_join on vslk"}
{"id":"eval_020","dataset":"ADVS","spec_row":{"variable":"ABLFL","label":"Baseline Record Flag","type":"text","origin":"Derived","derivation":"Last record before treatment flagged ABLFL=Y within each parameter","source_dataset":null,"source_variable":null},"expected_layers":["extreme_flag"],"expected_needs_human":false,"note":"gap closed by BDS extension: last pre-treatment record per parameter -> extreme_flag with restrict_filter"}
{"id":"eval_021","dataset":"ADVS","spec_row":{"variable":"DIABPBL","label":"Baseline Diastolic Blood Pressure","type":"float","origin":"Derived","derivation":"Average of replicate DIABP readings within visit","source_dataset":null,"source_variable":null},"expected_layers":[],"expected_needs_human":true,"note":"documented rules gap: summary_record pattern abstains under rules backend"}
{"id":"eval_022","dataset":"ADVS","spec_row":{"variable":"ASEQ","label":"Analysis Sequence Number","type":"integer","origin":"Derived","derivation":"Sequence number within subject ordered by visit date and time","source_dataset":null,"source_variable":null},"expected_layers":[],"expected_needs_human":true,"note":"documented rules gap: obs_number pattern abstains under rules backend"}
{"id":"eval_023","dataset":"ADVS","spec_row":{"variable":"MAP","label":"Mean Arterial Pressure","type":"float","origin":"Derived","derivation":"Mean arterial pressure = 2*DIABP/3 + SYSBP/3 computed from VS parameters","source_dataset":"vs","source_variable":null},"expected_layers":[],"expected_needs_human":true,"note":"documented rules gap: compute_param heuristic is BMI-only, other formulas abstain"}
{"id":"eval_024","dataset":"ADVS","spec_row":{"variable":"AVISIT","label":"Analysis Visit","type":"text","origin":"Derived","derivation":"Analysis visit assigned per visit windowing algorithm","source_dataset":null,"source_variable":null},"expected_layers":[],"expected_needs_human":true,"note":"abstention: visit windowing algorithm not in the closed vocabulary"}
