"variable","exec","adam_match","adam_na_agree","adam_n","pilot1_match","pilot1_n","note"
"STUDYID","EXECUTED","100.0%","100.0%",306,"100.0%",254," "
"USUBJID","EXECUTED","100.0%","100.0%",306,"83.0%",306,"set overlap set overlap"
"TRT01P","EXECUTED","100.0%","100.0%",306,"100.0%",254," "
"TRTSDTM","EXECUTED","83.0%","100.0%",306,NA,0," not in oracle"
"TRTEDTM","EXECUTED","39.5%","99.3%",306,NA,0," not in oracle"
"AGE","ERROR","100.0%","100.0%",306,"100.0%",254,"derivation blocked (BRTHDT/TRTSDT gap); compared dm-native AGE"
"BMIBL","EXECUTED(revised)",NA,NA,0,"85.8%",254,"not in oracle tol 0.5 | mean|diff|=0.304"
"AGEGR1","REVIEW",NA,NA,NA,NA,NA,"needs human (breakpoints)"
"RACEN","ERROR",NA,NA,NA,NA,NA,"needs real metacore spec"
